time_s,target_dof_right_hip_pitch_04,target_dof_right_hip_roll_03,target_dof_right_hip_yaw_03,target_dof_right_knee_04,target_dof_right_ankle_02,target_dof_left_hip_pitch_04,target_dof_left_hip_roll_03,target_dof_left_hip_yaw_03,target_dof_left_knee_04,target_dof_left_ankle_02,pos_dof_right_hip_pitch_04,pos_dof_right_hip_roll_03,pos_dof_right_hip_yaw_03,pos_dof_right_knee_04,pos_dof_right_ankle_02,pos_dof_left_hip_pitch_04,pos_dof_left_hip_roll_03,pos_dof_left_hip_yaw_03,pos_dof_left_knee_04,pos_dof_left_ankle_02,vel_dof_right_hip_pitch_04,vel_dof_right_hip_roll_03,vel_dof_right_hip_yaw_03,vel_dof_right_knee_04,vel_dof_right_ankle_02,vel_dof_left_hip_pitch_04,vel_dof_left_hip_roll_03,vel_dof_left_hip_yaw_03,vel_dof_left_knee_04,vel_dof_left_ankle_02,policy_target_dof_right_hip_pitch_04,policy_target_dof_right_hip_roll_03,policy_target_dof_right_hip_yaw_03,policy_target_dof_right_knee_04,policy_target_dof_right_ankle_02,policy_target_dof_left_hip_pitch_04,policy_target_dof_left_hip_roll_03,policy_target_dof_left_hip_yaw_03,policy_target_dof_left_knee_04,policy_target_dof_left_ankle_02,acc_x,acc_y,acc_z,gyro_x,gyro_y,gyro_z,pg_x,pg_y,pg_z
0.0,-0.0847313329577446,-0.005737477447837591,0.07299289852380753,-0.007324112579226494,0.08221201598644257,-0.0245321374386549,-0.006844538729637861,-0.04999969154596329,0.0893334373831749,0.038670819252729416,-0.0847313329577446,-0.005737477447837591,0.07299289852380753,-0.007324112579226494,0.08221201598644257,-0.0245321374386549,-0.006844538729637861,-0.04999969154596329,0.0893334373831749,0.038670819252729416,0.0,0.0,0.0,0.0,0.0,0.0,0.0,0.0,0.0,0.0,0.019467651844024658,-0.028713921085000038,0.15778201818466187,-0.8958002924919128,-0.48301565647125244,-0.07580709457397461,0.04504147171974182,-0.0949632003903389,0.851008951663971,-0.18959131836891174,-32.813106536865234,-3.564539909362793,-3.6741299629211426,0.0,0.0,-0.0,9.8100004196167,-2.2824278858024627e-05,2.6844125500247173e-07
0.02,-0.11817935109138489,0.0004723527526948601,0.079665407538414,-0.13564470410346985,-0.0363134890794754,-0.013278280384838581,-0.0025936681777238846,-0.0553550086915493,0.2587983310222626,-0.22703109681606293,-0.11817935109138489,0.0004723527526948601,0.079665407538414,-0.13564470410346985,-0.0363134890794754,-0.013278280384838581,-0.0025936681777238846,-0.0553550086915493,0.2587983310222626,-0.22703109681606293,-0.7730405926704407,0.3011263906955719,1.459776759147644,-8.565256118774414,8.557218551635742,-0.6678964495658875,0.2572475075721741,-0.9804456830024719,10.17229175567627,-1.9164429903030396,-0.0603596568107605,-0.061092227697372437,0.11268019676208496,-0.8147139549255371,-0.40235579013824463,-0.018294692039489746,0.08138877153396606,-0.14416107535362244,0.7792994976043701,-0.1587863266468048,-4.1956071853637695,8.526036262512207,1.2806931734085083,0.09443103522062302,0.2935299575328827,-1.6117362976074219,9.809630393981934,0.0734662413597107,0.043088797479867935
0.04,-0.12848298251628876,0.0021163104102015495,0.10010503977537155,-0.30680572986602783,0.07333158701658249,-0.026181582361459732,0.0022315820679068565,-0.08300801366567612,0.42362281680107117,-0.28381556272506714,-0.12848298251628876,0.0021163104102015495,0.10010503977537155,-0.30680572986602783,0.07333158701658249,-0.026181582361459732,0.0022315820679068565,-0.08300801366567612,0.42362281680107117,-0.28381556272506714,-0.3677128255367279,0.16935555636882782,0.6059976816177368,-7.485225677490234,4.792569637298584,-0.3936326503753662,0.39542269706726074,-1.676295518875122,6.616948127746582,1.1345196962356567,-0.14149580895900726,-0.07898177951574326,0.03221597895026207,-0.7258458137512207,0.0722740888595581,0.09821274876594543,0.07174372673034668,-0.24275991320610046,0.6740928888320923,-0.2775360941886902,-5.155462265014648,2.668267011642456,0.05091874673962593,-0.5063813924789429,0.20729556679725647,-2.1350724697113037,9.798322677612305,0.4696252942085266,0.09183147549629211
0.06,-0.1341114193201065,0.0018907622434198856,0.0883370116353035,-0.43490710854530334,0.13584043085575104,-0.026109544560313225,0.0053317914716899395,-0.13486286997795105,0.5223082900047302,-0.3224543333053589,-0.1341114193201065,0.0018907622434198856,0.0883370116353035,-0.43490710854530334,0.13584043085575104,-0.026109544560313225,0.0053317914716899395,-0.13486286997795105,0.5223082900047302,-0.3224543333053589,-0.23829279839992523,-0.11453642696142197,-1.5377684831619263,-5.406899452209473,3.1913936138153076,0.19570329785346985,0.08692558109760284,-3.2863259315490723,4.127861976623535,-3.1400668621063232,-0.2712428867816925,-0.09912823140621185,0.03916953131556511,-0.8350992798805237,0.1552060842514038,0.06931164860725403,0.14253589510917664,-0.2624177038669586,0.6139357089996338,-0.3596354126930237,-6.752241611480713,-2.5625,-1.2879765033721924,-1.1395419836044312,0.09284389019012451,-1.8930168151855469,9.770099639892578,0.8735871911048889,0.13453879952430725
0.08,-0.14543528854846954,-0.0014845224795863032,0.060060929507017136,-0.5437736511230469,0.18868455290794373,-0.020920854061841965,0.013249974697828293,-0.18985937535762787,0.5772975087165833,-0.3720863163471222,-0.14543528854846954,-0.0014845224795863032,0.060060929507017136,-0.5437736511230469,0.18868455290794373,-0.020920854061841965,0.013249974697828293,-0.18985937535762787,0.5772975087165833,-0.3720863163471222,-0.8278114795684814,-0.19445392489433289,-1.1451261043548584,-5.471005916595459,3.417537212371826,0.2574322819709778,0.6829551458358765,-2.3050363063812256,1.5954768657684326,-1.6110433340072632,-0.2764466106891632,-0.08894237875938416,0.0037671662867069244,-0.771842360496521,0.14603489637374878,0.10504955053329468,0.197483092546463,-0.28498682379722595,0.6138393878936768,-0.402871310710907,-2.7092013359069824,-1.2397745847702026,-0.46845752000808716,-1.1759076118469238,0.07573364675045013,-1.45962655544281,9.735533714294434,1.1931219100952148,0.17870865762233734
0.1,-0.15902428328990936,-0.007387840189039707,0.036547865718603134,-0.6347308158874512,0.24360938370227814,-0.014311345294117928,0.0311594158411026,-0.2297571897506714,0.6041429042816162,-0.44235607981681824,-0.15902428328990936,-0.007387840189039707,0.036547865718603134,-0.6347308158874512,0.24360938370227814,-0.014311345294117928,0.0311594158411026,-0.2297571897506714,0.6041429042816162,-0.44235607981681824,-0.5224493145942688,-0.2695055305957794,-1.2477037906646729,-3.925877809524536,4.138744831085205,0.47337815165519714,1.1077995300292969,-1.801797866821289,1.0207617282867432,-3.4976863861083984,-0.38253363966941833,-0.1280573308467865,0.07907117903232574,-0.8304283618927002,0.0709274411201477,0.05873331427574158,0.17256101965904236,-0.3935798704624176,0.5734875798225403,-0.29965585470199585,-4.833539009094238,-2.50205397605896,0.9003289341926575,-1.395115613937378,0.156643807888031,-1.125551700592041,9.701191902160645,1.4380744695663452,0.23433393239974976
0.12,-0.1697230339050293,-0.01805051974952221,0.032528992742300034,-0.7055349946022034,0.28483086824417114,-0.004347837530076504,0.03224659338593483,-0.2606907784938812,0.6435712575912476,-0.48948049545288086,-0.1697230339050293,-0.01805051974952221,0.032528992742300034,-0.7055349946022034,0.28483086824417114,-0.004347837530076504,0.03224659338593483,-0.2606907784938812,0.6435712575912476,-0.48948049545288086,-0.5118303298950195,-0.40602800250053406,0.8660579919815063,-3.5846877098083496,1.785620093345642,0.26634329557418823,-0.713093101978302,-0.9044855833053589,2.6064555644989014,-0.9956591129302979,-0.2805429697036743,-0.1297096610069275,0.14399370551109314,-0.8985639810562134,0.24533936381340027,0.07100799679756165,0.16546966135501862,-0.4041372537612915,0.5869687795639038,-0.4337341785430908,-19.09157943725586,-6.749698638916016,-2.4813880920410156,-0.9056932330131531,-0.42094019055366516,-1.0169670581817627,9.671731948852539,1.6213933229446411,0.2545114755630493
0.14,-0.18097254633903503,-0.022025316953659058,0.05891845002770424,-0.7659432888031006,0.2953854203224182,-0.003447385272011161,0.023329271003603935,-0.27865341305732727,0.6766152381896973,-0.5037450790405273,-0.18097254633903503,-0.022025316953659058,0.05891845002770424,-0.7659432888031006,0.2953854203224182,-0.003447385272011161,0.023329271003603935,-0.27865341305732727,0.6766152381896973,-0.5037450790405273,-0.5267112255096436,-0.24811379611492157,1.7340996265411377,-2.5116896629333496,-0.318170428276062,-0.01728234998881817,-0.37418755888938904,-0.9572958946228027,1.2488614320755005,-0.5572047829627991,-0.2161838710308075,-0.1316276341676712,0.1607947200536728,-0.898884654045105,0.3247033953666687,0.09679794311523438,0.14625689387321472,-0.417555570602417,0.6349921226501465,-0.3471982479095459,-10.994099617004395,-4.295177459716797,-2.8529012203216553,-0.9223846197128296,-0.25864171981811523,-0.7286084294319153,9.645029067993164,1.7766458988189697,0.23032739758491516
0.16,-0.18798770010471344,-0.029525091871619225,0.09412892162799835,-0.806204080581665,0.3047454059123993,-0.0025866925716400146,0.016976337879896164,-0.3013981282711029,0.6990774273872375,-0.5130363702774048,-0.18798770010471344,-0.029525091871619225,0.09412892162799835,-0.806204080581665,0.3047454059123993,-0.0025866925716400146,0.016976337879896164,-0.3013981282711029,0.6990774273872375,-0.5130363702774048,-0.18293240666389465,-0.475515216588974,1.7556636333465576,-1.6560338735580444,0.8013731837272644,0.12493793666362762,-0.26722267270088196,-1.2944127321243286,1.1099401712417603,-0.44742026925086975,-0.12731677293777466,-0.10767900943756104,0.09590321034193039,-0.9242061376571655,0.3313688039779663,0.04336827993392944,0.17116034030914307,-0.37946125864982605,0.5684366226196289,-0.4447864294052124,-10.27312183380127,-3.58536434173584,-2.4121389389038086,-1.280473232269287,-0.2508143186569214,-0.5896241664886475,9.622542381286621,1.8959240913391113,0.21964965760707855
0.18,-0.18529395759105682,-0.039199043065309525,0.11248534917831421,-0.8362597823143005,0.3186487555503845,-0.004673854447901249,0.015773635357618332,-0.32520803809165955,0.7153475284576416,-0.5204070210456848,-0.18529395759105682,-0.039199043065309525,0.11248534917831421,-0.8362597823143005,0.3186487555503845,-0.004673854447901249,0.015773635357618332,-0.32520803809165955,0.7153475284576416,-0.5204070210456848,0.31778907775878906,-0.45421814918518066,0.0910378247499466,-1.4592151641845703,0.5436748266220093,-0.2830734848976135,0.11036944389343262,-1.063047170639038,0.5319876670837402,-0.2572541832923889,-0.12030002474784851,-0.11852328479290009,0.14485600590705872,-0.8906090259552002,0.5567086338996887,-0.03344219923019409,0.21288439631462097,-0.37532106041908264,0.5671983957290649,-0.4742991626262665,-11.404356956481934,-4.396628379821777,-3.1522538661956787,-1.2891993522644043,-0.13456138968467712,-0.6931933164596558,9.598529815673828,2.0122604370117188,0.23481285572052002
0.2,-0.1764538586139679,-0.046418529003858566,0.11680535227060318,-0.8577443361282349,0.41198375821113586,-0.012905671261250973,0.02167556807398796,-0.3407863676548004,0.7199276685714722,-0.5228773355484009,-0.1764538586139679,-0.046418529003858566,0.11680535227060318,-0.8577443361282349,0.41198375821113586,-0.012905671261250973,0.02167556807398796,-0.3407863676548004,0.7199276685714722,-0.5228773355484009,0.47950029373168945,-0.3214768171310425,0.53730309009552,-0.6723098754882812,6.754965305328369,-0.49606236815452576,0.3975978493690491,-0.5167855620384216,0.07026953250169754,-0.3326643705368042,-0.04638901352882385,-0.07292799651622772,0.0938810333609581,-0.9145058393478394,0.5404468774795532,-0.010959535837173462,0.2172549068927765,-0.3969061076641083,0.572628378868103,-0.48549240827560425,-10.342728614807129,-4.064786434173584,-3.168593645095825,-0.9660546183586121,-0.09936283528804779,-0.6388186812400818,9.571831703186035,2.132370710372925,0.2629321217536926
0.22,-0.1656862199306488,-0.0510016568005085,0.11918433755636215,-0.8690882325172424,0.4951401352882385,-0.022690890356898308,0.03269858658313751,-0.34988826513290405,0.7182582020759583,-0.5215737819671631,-0.1656862199306488,-0.0510016568005085,0.11918433755636215,-0.8690882325172424,0.4951401352882385,-0.022690890356898308,0.03269858658313751,-0.34988826513290405,0.7182582020759583,-0.5215737819671631,0.6365212798118591,-0.1617429405450821,-0.3778632879257202,-0.5934146642684937,2.367291212081909,-0.4632593095302582,0.5618951916694641,-0.6213400363922119,0.0604851171374321,-0.43260329961776733,-0.005611628293991089,-0.0679042786359787,0.11350434273481369,-0.946699321269989,0.4942033290863037,0.01263245940208435,0.17545902729034424,-0.47434201836586,0.5535022020339966,-0.43166694045066833,-10.619359016418457,-3.773470401763916,-3.198657274246216,-0.9203625321388245,-0.0059306425973773,-0.5658719539642334,9.546558380126953,2.2391560077667236,0.29241710901260376
0.24,-0.1517685055732727,-0.053128715604543686,0.11317283660173416,-0.8841690421104431,0.5073540210723877,-0.030930737033486366,0.04213012382388115,-0.369208961725235,0.7171390056610107,-0.5241768956184387,-0.1517685055732727,-0.053128715604543686,0.11317283660173416,-0.8841690421104431,0.5073540210723877,-0.030930737033486366,0.04213012382388115,-0.369208961725235,0.7171390056610107,-0.5241768956184387,0.7650389671325684,-0.08394888043403625,-0.11075183749198914,-0.8976415395736694,-0.36591583490371704,-0.33303302526474,0.40274226665496826,-1.2028274536132812,-0.12295937538146973,-0.007586166262626648,-0.013654768466949463,-0.12603868544101715,0.22844380140304565,-1.0330398082733154,0.5635115504264832,0.008269816637039185,0.15519806742668152,-0.45056185126304626,0.533686637878418,-0.41878920793533325,-9.473834037780762,-3.775172233581543,-3.6470212936401367,-1.0569791793823242,-0.09382160007953644,-0.4364204406738281,9.523895263671875,2.3288681507110596,0.3284585773944855
0.26,-0.13782784342765808,-0.056942399591207504,0.13343237340450287,-0.9141761660575867,0.5273492932319641,-0.03677055984735489,0.04709029570221901,-0.39162376523017883,0.7107119560241699,-0.5217245817184448,-0.13782784342765808,-0.056942399591207504,0.13343237340450287,-0.9141761660575867,0.5273492932319641,-0.03677055984735489,0.04709029570221901,-0.39162376523017883,0.7107119560241699,-0.5217245817184448,0.6516643166542053,-0.3151438236236572,2.1107375621795654,-1.9516534805297852,1.6733152866363525,-0.28961899876594543,0.11184889078140259,-0.9873495101928711,-0.5139683485031128,0.23696044087409973,-0.04937008023262024,-0.0548846572637558,0.1383323222398758,-0.9783908128738403,0.5865596532821655,0.1361427903175354,0.17578911781311035,-0.43104588985443115,0.5893548130989075,-0.39529818296432495,-9.166153907775879,-3.7037830352783203,-3.7884082794189453,-0.9698444604873657,-0.4381684362888336,-0.27400538325309753,9.509513854980469,2.386847496032715,0.32893529534339905
0.28,-0.1278635561466217,-0.06110365688800812,0.16060642898082733,-0.9412565231323242,0.5561013221740723,-0.03316250815987587,0.052494633942842484,-0.4086863398551941,0.7050871253013611,-0.5171822905540466,-0.1278635561466217,-0.06110365688800812,0.16060642898082733,-0.9412565231323242,0.5561013221740723,-0.03316250815987587,0.052494633942842484,-0.4086863398551941,0.7050871253013611,-0.5171822905540466,0.41137245297431946,-0.08296357840299606,0.36445313692092896,-0.7545433044433594,1.2956563234329224,0.5196333527565002,0.3505266308784485,-0.8893989324569702,0.04558900371193886,-0.2560335099697113,-0.04880085587501526,-0.025608018040657043,0.17851315438747406,-0.9476409554481506,0.772107720375061,0.2263142168521881,0.16186869144439697,-0.4766791760921478,0.5839027166366577,-0.5307787656784058,-8.708434104919434,-3.4473209381103516,-2.654985189437866,-1.0837748050689697,-0.3488825559616089,0.16912968456745148,9.510162353515625,2.388335704803467,0.29793816804885864
0.3,-0.12071219831705093,-0.058966245502233505,0.16570612788200378,-0.947999119758606,0.6451262831687927,-0.017518749460577965,0.05988386273384094,-0.4281967282295227,0.7077429890632629,-0.5185402035713196,-0.12071219831705093,-0.058966245502233505,0.16570612788200378,-0.947999119758606,0.6451262831687927,-0.017518749460577965,0.05988386273384094,-0.4281967282295227,0.7077429890632629,-0.5185402035713196,0.3418724536895752,0.21952806413173676,0.4092409610748291,0.004254173021763563,5.997711181640625,0.9742632508277893,0.3076998293399811,-1.093630075454712,0.2807594835758209,-0.2620144486427307,0.05582451820373535,-0.023529574275016785,0.158964142203331,-0.9442098140716553,0.867351770401001,0.31735560297966003,0.2366584837436676,-0.46875622868537903,0.6208020448684692,-0.7032622694969177,-8.27165412902832,-3.3314247131347656,-3.3306596279144287,-1.0805931091308594,-0.33251819014549255,0.4710581302642822,9.527610778808594,2.3190221786499023,0.28788211941719055
0.32,-0.10952842235565186,-0.05223611369729042,0.16818635165691376,-0.9444005489349365,0.761059045791626,0.006792404688894749,0.07244520634412766,-0.4392758309841156,0.7169697880744934,-0.5239962935447693,-0.10952842235565186,-0.05223611369729042,0.16818635165691376,-0.9444005489349365,0.761059045791626,0.006792404688894749,0.07244520634412766,-0.4392758309841156,0.7169697880744934,-0.5239962935447693,0.791242241859436,0.3459486663341522,-0.20024046301841736,0.2396441549062729,5.302765846252441,1.4364442825317383,0.892810046672821,-0.0697212964296341,0.6011485457420349,-0.03720710426568985,0.0330234169960022,0.0029944628477096558,0.1363479048013687,-0.8732556700706482,0.7983990907669067,0.3391318917274475,0.2680390775203705,-0.43563950061798096,0.6577594876289368,-0.7124072909355164,-5.562291622161865,-2.1838724613189697,-2.9367189407348633,-1.357451319694519,-0.2745360732078552,0.5135626792907715,9.552491188049316,2.2149815559387207,0.2825969159603119
0.34,-0.09239184856414795,-0.0449434295296669,0.16016162931919098,-0.9311264157295227,0.8010830283164978,0.03900923579931259,0.09226648509502411,-0.43357008695602417,0.7338139414787292,-0.5320435762405396,-0.09239184856414795,-0.0449434295296669,0.16016162931919098,-0.9311264157295227,0.8010830283164978,0.03900923579931259,0.09226648509502411,-0.43357008695602417,0.7338139414787292,-0.5320435762405396,0.8519245386123657,0.39168938994407654,-0.57484370470047,1.026773452758789,0.12010497599840164,1.6989846229553223,1.0794414281845093,0.5807932019233704,0.8572018146514893,-0.18133804202079773,-0.02017250657081604,-0.001260027289390564,0.15414275228977203,-0.7231033444404602,0.7088303565979004,0.3373123109340668,0.304719477891922,-0.3876661956310272,0.7015659213066101,-0.690039336681366,-5.787333011627197,-2.0117075443267822,-3.1237070560455322,-1.3375834226608276,-0.32889214158058167,0.5555671453475952,9.577186584472656,2.1057355403900146,0.2819264829158783
0.36,-0.07687817513942719,-0.03720961883664131,0.15302108228206635,-0.8909119367599487,0.7638548612594604,0.07420625537633896,0.1150706335902214,-0.41399621963500977,0.751139223575592,-0.5310642719268799,-0.07687817513942719,-0.03720961883664131,0.15302108228206635,-0.8909119367599487,0.7638548612594604,0.07420625537633896,0.1150706335902214,-0.41399621963500977,0.751139223575592,-0.5310642719268799,0.6638844013214111,0.3385164737701416,-0.11848318576812744,2.817467451095581,-2.7126784324645996,1.77654230594635,1.1600147485733032,1.3151910305023193,0.8884310126304626,0.1535380631685257,-0.17753510177135468,-0.026784464716911316,0.19782231748104095,-0.5910102725028992,0.6756294369697571,0.3881591856479645,0.16166655719280243,-0.2971075177192688,0.8091129064559937,-0.5807132720947266,-5.642122268676758,-1.4739398956298828,-3.074268102645874,-0.9430310130119324,-0.43280020356178284,0.6158290505409241,9.6030855178833,1.9878102540969849,0.2558460831642151
0.38,-0.08154122531414032,-0.03079555183649063,0.1544262170791626,-0.8433815836906433,0.6254760026931763,0.10917532444000244,0.13272462785243988,-0.386409193277359,0.7733410000801086,-0.5429495573043823,-0.08154122531414032,-0.03079555183649063,0.1544262170791626,-0.8433815836906433,0.6254760026931763,0.10917532444000244,0.13272462785243988,-0.386409193277359,0.7733410000801086,-0.5429495573043823,-0.9323949217796326,0.44003990292549133,-0.2803174555301666,1.158613681793213,-12.87735366821289,1.3339539766311646,0.6757852435112,1.5690207481384277,0.9200127720832825,-1.1179163455963135,-0.3534056842327118,-0.03662383556365967,0.25914543867111206,-0.5909050107002258,0.28371769189834595,0.47037333250045776,0.12717673182487488,-0.2476063370704651,0.9121115207672119,-0.3737240433692932,-9.010143280029297,-1.7900902032852173,2.3506267070770264,-0.45225077867507935,-0.4477223753929138,0.4588564932346344,9.630865097045898,1.8576812744140625,0.1776561439037323
0.4,-0.10037320852279663,-0.022159870713949203,0.1419278383255005,-0.8598999381065369,0.58221834897995,0.14305347204208374,0.14369958639144897,-0.3489685654640198,0.8037896156311035,-0.5114741325378418,-0.10037320852279663,-0.022159870713949203,0.1419278383255005,-0.8598999381065369,0.58221834897995,0.14305347204208374,0.14369958639144897,-0.3489685654640198,0.8037896156311035,-0.5114741325378418,-0.8994441032409668,0.4265417158603668,-0.6957834959030151,-0.9708142280578613,0.9952511787414551,2.017218828201294,0.45701098442077637,2.2224009037017822,1.9488624334335327,1.5154366493225098,-0.2404494285583496,-0.042721740901470184,0.32418230175971985,-0.5647731423377991,0.22391188144683838,0.5326722860336304,0.08249591290950775,-0.35065141320228577,1.0366284847259521,-0.28493887186050415,-17.118993759155273,-4.844993591308594,3.729508638381958,-0.7388940453529358,-0.26111459732055664,0.5267581939697266,9.646893501281738,1.7767518758773804,0.1292446404695511
0.42,-0.11241243034601212,-0.01432322058826685,0.13423041999340057,-0.8606768250465393,0.5833011865615845,0.18542960286140442,0.14424000680446625,-0.3313787579536438,0.8527652025222778,-0.4604724943637848,-0.11241243034601212,-0.01432322058826685,0.13423041999340057,-0.8606768250465393,0.5833011865615845,0.18542960286140442,0.14424000680446625,-0.3313787579536438,0.8527652025222778,-0.4604724943637848,-0.35545840859413147,0.41944608092308044,-0.13703344762325287,0.6119347214698792,-0.48483115434646606,2.169771909713745,-0.2813069522380829,-0.2884679138660431,2.839350938796997,2.7800230979919434,-0.17045146226882935,-0.032261744141578674,0.27775195240974426,-0.5211753249168396,0.2990846633911133,0.42738229036331177,-0.021535634994506836,-0.31609103083610535,1.070829153060913,-0.2977972626686096,-15.800474166870117,-3.0160648822784424,3.553828239440918,-0.5123500227928162,-0.21126602590084076,0.5427946448326111,9.667099952697754,1.66522216796875,0.10152454674243927
0.44,-0.11245721578598022,-0.007676644716411829,0.13803021609783173,-0.8368580341339111,0.5674212574958801,0.2197926789522171,0.13246574997901917,-0.3389752507209778,0.9097381830215454,-0.39182502031326294,-0.11245721578598022,-0.007676644716411829,0.13803021609783173,-0.8368580341339111,0.5674212574958801,0.2197926789522171,0.13246574997901917,-0.3389752507209778,0.9097381830215454,-0.39182502031326294,0.1944291889667511,0.24784234166145325,0.2496325969696045,1.5239176750183105,-1.0799319744110107,1.3429030179977417,-0.8352189064025879,-0.14751236140727997,2.844762086868286,3.8515374660491943,-0.09671062231063843,-0.04853750765323639,0.270957350730896,-0.5330348610877991,0.2920524775981903,0.3107832968235016,-0.04951084405183792,-0.3175460696220398,1.0336496829986572,-0.21464380621910095,-12.626497268676758,-3.6966371536254883,3.8439688682556152,0.05345641076564789,-0.22267316281795502,0.3228631615638733,9.681533813476562,1.5809242725372314,0.06835982948541641
0.46,-0.10503369569778442,-0.003792820731177926,0.14813990890979767,-0.800119936466217,0.5424474477767944,0.23655866086483002,0.1133817732334137,-0.33919551968574524,0.9528579115867615,-0.3164701461791992,-0.10503369569778442,-0.003792820731177926,0.14813990890979767,-0.800119936466217,0.5424474477767944,0.23655866086483002,0.1133817732334137,-0.33919551968574524,0.9528579115867615,-0.3164701461791992,0.4506029784679413,0.1320098340511322,0.7154728770256042,1.9869384765625,-1.3436620235443115,0.48613983392715454,-1.045480728149414,0.07815949618816376,1.5554282665252686,4.313839912414551,-0.10514537990093231,-0.0350281223654747,0.1947237253189087,-0.5797324180603027,0.18224602937698364,0.2526412308216095,-0.06565514951944351,-0.38360273838043213,0.9838867783546448,-0.1769254505634308,-9.975854873657227,-2.746936559677124,2.6672475337982178,0.6021196842193604,-0.24299664795398712,0.2198783904314041,9.690499305725098,1.5264538526535034,0.016049088910222054
0.48,-0.09791159629821777,-0.0019361523445695639,0.16312821209430695,-0.7606446743011475,0.5149479508399963,0.24273887276649475,0.09221237897872925,-0.35071319341659546,0.9714828729629517,-0.2567031979560852,-0.09791159629821777,-0.0019361523445695639,0.16312821209430695,-0.7606446743011475,0.5149479508399963,0.24273887276649475,0.09221237897872925,-0.35071319341659546,0.9714828729629517,-0.2567031979560852,0.26592913269996643,0.09698348492383957,0.7392611503601074,1.9042130708694458,-1.352896809577942,0.19236689805984497,-1.034691572189331,-1.2594515085220337,0.4554048776626587,1.9553202390670776,-0.10411413013935089,-0.016447624191641808,0.028458774089813232,-0.5610257983207703,0.08567136526107788,0.22682051360607147,-0.023526377975940704,-0.3824353814125061,0.923806369304657,-0.1512005627155304,-7.4348063468933105,-1.3395718336105347,1.7482249736785889,0.8474896550178528,-0.20127764344215393,0.3250446319580078,9.698785781860352,1.4720371961593628,-0.052520476281642914
0.5,-0.09338654577732086,-0.0009764886926859617,0.1501619815826416,-0.7242189049720764,0.48766499757766724,0.24442394077777863,0.07654458284378052,-0.37291786074638367,0.9671457409858704,-0.21100366115570068,-0.09338654577732086,-0.0009764886926859617,0.1501619815826416,-0.7242189049720764,0.48766499757766724,0.24442394077777863,0.07654458284378052,-0.37291786074638367,0.9671457409858704,-0.21100366115570068,0.2230416089296341,0.0037878938019275665,-2.1878271102905273,1.8218779563903809,-1.4358747005462646,0.0327950157225132,-0.5385349988937378,-1.0267512798309326,-0.6716004610061646,2.1226439476013184,-0.19126179814338684,-0.002661934122443199,-0.022717751562595367,-0.5389423966407776,0.03337836265563965,0.27063503861427307,0.0318465530872345,-0.39684849977493286,0.839265763759613,-0.19403895735740662,-5.254447937011719,-1.1389802694320679,1.440881371498108,0.6955918073654175,0.06207290664315224,0.34557104110717773,9.708508491516113,1.4043996334075928,-0.0928894653916359
0.52,-0.09407676011323929,2.4636835860292194e-06,0.0881359651684761,-0.6900880336761475,0.4638213515281677,0.24794873595237732,0.07177435606718063,-0.3903436064720154,0.9438183903694153,-0.20393557846546173,-0.09407676011323929,2.4636835860292194e-06,0.0881359651684761,-0.6900880336761475,0.4638213515281677,0.24794873595237732,0.07177435606718063,-0.3903436064720154,0.9438183903694153,-0.20393557846546173,-0.3268592357635498,0.3010684549808502,-1.954295039176941,1.1504889726638794,-0.9493098855018616,0.22747834026813507,0.08064728230237961,-0.9030826091766357,-1.0043201446533203,-2.2194294929504395,-0.2263452410697937,-0.014421692118048668,-0.056165896356105804,-0.5663099884986877,0.1265830397605896,0.34211522340774536,-0.01614910364151001,-0.346693754196167,0.8678598999977112,-0.30802902579307556,-22.135465621948242,-1.7009681463241577,3.0486209392547607,0.8307021856307983,0.24191001057624817,0.7010530233383179,9.722687721252441,1.3031262159347534,-0.08542577177286148
0.54,-0.10483818501234055,0.0034598750062286854,0.03761265054345131,-0.6634721159934998,0.43623408675193787,0.2564676105976105,0.06740429997444153,-0.39373594522476196,0.9195742607116699,-0.2457854449748993,-0.10483818501234055,0.0034598750062286854,0.03761265054345131,-0.6634721159934998,0.43623408675193787,0.2564676105976105,0.06740429997444153,-0.39373594522476196,0.9195742607116699,-0.2457854449748993,-0.67511385679245,0.23962068557739258,-2.1831157207489014,1.0889852046966553,-0.558070957660675,0.5564207434654236,-0.3657463788986206,0.4982510507106781,-1.0399984121322632,-2.891922950744629,-0.21338826417922974,-0.00610445998609066,-0.024308212101459503,-0.5591703057289124,0.20217370986938477,0.19103509187698364,-0.03651107847690582,-0.24306046962738037,0.915244996547699,-0.3185808062553406,-7.004557132720947,-0.3209664821624756,0.6061407923698425,0.6402845978736877,0.207151859998703,0.8984636068344116,9.743033409118652,1.1430100202560425,-0.054181329905986786
0.56,-0.11501671373844147,0.011395134963095188,0.019345462322235107,-0.6480929851531982,0.43059247732162476,0.25959262251853943,0.05799870565533638,-0.36031919717788696,0.9069651365280151,-0.289456307888031,-0.11501671373844147,0.011395134963095188,0.019345462322235107,-0.6480929851531982,0.43059247732162476,0.25959262251853943,0.05799870565533638,-0.36031919717788696,0.9069651365280151,-0.289456307888031,-0.3771609663963318,0.44486960768699646,-0.11354994028806686,0.5741050243377686,-0.5467900633811951,-0.1765933483839035,-0.5877109169960022,2.7247536182403564,-0.21541465818881989,-1.5561747550964355,-0.205143541097641,-0.007963305339217186,-0.007559679448604584,-0.3985026180744171,0.25598156452178955,0.26176923513412476,-0.16461162269115448,-0.17801278829574585,0.904186487197876,-0.31910860538482666,-7.614998817443848,-0.14492209255695343,1.6554155349731445,0.5658692717552185,0.20486170053482056,0.46558448672294617,9.757942199707031,1.009109616279602,-0.019009945914149284
0.58,-0.11994382739067078,0.019300058484077454,0.016974471509456635,-0.631628155708313,0.41893038153648376,0.25743740797042847,0.03891490399837494,-0.29915374517440796,0.9054108262062073,-0.3063966631889343,-0.11994382739067078,0.019300058484077454,0.016974471509456635,-0.631628155708313,0.41893038153648376,0.25743740797042847,0.03891490399837494,-0.29915374517440796,0.9054108262062073,-0.3063966631889343,-0.12375367432832718,0.381974458694458,-0.17118807137012482,1.2032930850982666,-0.7772929072380066,0.03447443246841431,-1.2646797895431519,3.2360928058624268,-0.06065075099468231,-0.48065099120140076,-0.23468118906021118,-0.04472210258245468,-0.11046253144741058,-0.5404553413391113,-0.06233799457550049,-0.019974172115325928,-0.24349398910999298,-0.09415575116872787,0.771852433681488,-0.3065800666809082,-11.622640609741211,-2.68005108833313,3.4351134300231934,0.08372433483600616,0.18985778093338013,0.5373397469520569,9.7669677734375,0.917794942855835,0.009787720628082752
0.6,-0.12194586545228958,0.02092091366648674,-0.010007796809077263,-0.6123805046081543,0.40505996346473694,0.2446625679731369,0.007656301837414503,-0.22921709716320038,0.8814501166343689,-0.3294614851474762,-0.12194586545228958,0.02092091366648674,-0.010007796809077263,-0.6123805046081543,0.40505996346473694,0.2446625679731369,0.007656301837414503,-0.22921709716320038,0.8814501166343689,-0.3294614851474762,-0.2297719568014145,-0.20559090375900269,-2.7734553813934326,0.6048911809921265,-0.506962776184082,-1.0987780094146729,-1.4430230855941772,3.3316240310668945,-1.5899052619934082,-10.396073341369629,-0.2778899073600769,0.13057200610637665,-0.17368923127651215,-0.5878735184669495,-0.2777599096298218,-0.265289843082428,-0.20142370462417603,-0.010172096081078053,0.49973565340042114,-0.22673791646957397,-13.709381103515625,1.0102837085723877,-7.3959550857543945,0.29875338077545166,-0.015051665715873241,0.32849419116973877,9.774779319763184,0.8299437165260315,0.03126702457666397
0.62,-0.12761300802230835,0.020556379109621048,-0.06819158047437668,-0.6085466146469116,0.3965325653553009,0.2056405246257782,-0.014274908229708672,-0.1541745513677597,0.8022795915603638,-0.3577146530151367,-0.12761300802230835,0.020556379109621048,-0.06819158047437668,-0.6085466146469116,0.3965325653553009,0.2056405246257782,-0.014274908229708672,-0.1541745513677597,0.8022795915603638,-0.3577146530151367,-0.433797687292099,0.19163337349891663,-2.862473964691162,-0.19503875076770782,-0.4676417112350464,-2.4832615852355957,-0.7591918706893921,3.812270402908325,-5.5542311668396,1.8499910831451416,-0.29494136571884155,0.3171956539154053,-0.09511014819145203,-0.655714213848114,-0.26201242208480835,-0.4292154312133789,0.10994306206703186,-0.2679840922355652,0.29314255714416504,-0.2576083838939667,-4.82472038269043,-0.42038658261299133,2.9798388481140137,0.9919518828392029,0.22281266748905182,0.12077800929546356,9.778240203857422,0.7880052924156189,0.03412842005491257
0.64,-0.1383131891489029,0.041759785264730453,-0.09244557470083237,-0.6186011433601379,0.37587422132492065,0.14614148437976837,-0.007863765582442284,-0.1412799060344696,0.6779646873474121,-0.4134739637374878,-0.1383131891489029,0.041759785264730453,-0.09244557470083237,-0.6186011433601379,0.37587422132492065,0.14614148437976837,-0.007863765582442284,-0.1412799060344696,0.6779646873474121,-0.4134739637374878,-0.6933429837226868,1.7607518434524536,0.009486055932939053,-0.8150215148925781,-1.6630139350891113,-3.3865749835968018,1.2033950090408325,-2.4104392528533936,-6.319177627563477,-5.522939682006836,-0.28016984462738037,0.06345959007740021,-0.008067157119512558,-1.1466705799102783,-0.1471937894821167,-0.31224942207336426,0.2506246268749237,-0.45929741859436035,0.26334792375564575,0.06896114349365234,-13.127285957336426,-0.7602493762969971,-3.38885760307312,1.372365117073059,1.204053521156311,0.014713209122419357,9.77800178527832,0.7781499028205872,0.145831897854805
0.66,-0.15754014253616333,0.05555393919348717,-0.07616061717271805,-0.693087637424469,0.30982524156570435,0.09769958257675171,0.008158138953149319,-0.1656477153301239,0.5968981981277466,-0.4089958965778351,-0.15754014253616333,0.05555393919348717,-0.07616061717271805,-0.693087637424469,0.30982524156570435,0.09769958257675171,0.008158138953149319,-0.1656477153301239,0.5968981981277466,-0.4089958965778351,-0.9131004214286804,0.09203017503023148,1.6573712825775146,-6.37074613571167,-9.957352638244629,-2.4956586360931396,0.6070858240127563,-0.48066556453704834,-3.2876124382019043,1.501944661140442,-0.3384844660758972,-0.04226423799991608,-0.006257582455873489,-1.2593002319335938,-0.07232403755187988,-0.21854060888290405,0.2517784535884857,-0.4623401165008545,0.34673017263412476,-0.10466751456260681,-14.908282279968262,0.3768211007118225,-3.8800392150878906,0.9474213123321533,0.1150347962975502,-0.6798610091209412,9.772332191467285,0.8211644291877747,0.25162655115127563
0.68,-0.18780837953090668,0.05690969154238701,-0.05420726165175438,-0.8279502987861633,0.20713002979755402,0.048250894993543625,0.021619658917188644,-0.2655889093875885,0.5224557518959045,-0.3748757541179657,-0.18780837953090668,0.05690969154238701,-0.05420726165175438,-0.8279502987861633,0.20713002979755402,0.048250894993543625,0.021619658917188644,-0.2655889093875885,0.5224557518959045,-0.3748757541179657,-1.6005704402923584,-0.20828837156295776,0.6895065903663635,-7.059032440185547,-8.252593994140625,-2.1997554302215576,0.7711875438690186,-5.948946952819824,-3.306732416152954,1.6078259944915771,-0.3460438847541809,-0.04637123644351959,0.03287641331553459,-1.2834386825561523,0.0845099687576294,-0.15985208749771118,0.2761855125427246,-0.42888134717941284,0.3754713237285614,-0.15349021553993225,-2.9645564556121826,0.5840251445770264,0.02219376340508461,0.554259717464447,0.33909356594085693,-0.6262043714523315,9.75899600982666,0.9559837579727173,0.2901502549648285
0.7,-0.21524082124233246,0.05054563656449318,-0.03478562831878662,-0.9590426683425903,0.12432581931352615,0.012227742001414299,0.04192839562892914,-0.3539697229862213,0.4719078540802002,-0.3504871428012848,-0.21524082124233246,0.05054563656449318,-0.03478562831878662,-0.9590426683425903,0.12432581931352615,0.012227742001414299,0.04192839562892914,-0.3539697229862213,0.4719078540802002,-0.3504871428012848,-1.1044212579727173,-0.42956385016441345,1.329758882522583,-6.1030402183532715,-2.2158589363098145,-1.4954842329025269,1.0966641902923584,-3.0465903282165527,-1.8917686939239502,2.9387441827566363e-05,-0.2521153688430786,-0.06886716187000275,0.04892927035689354,-1.3090760707855225,0.11100345849990845,-0.12038266658782959,0.2715758979320526,-0.38004636764526367,0.40330567955970764,-0.197240948677063,-3.0388779640197754,-0.9129588603973389,0.11002299934625626,0.07192154973745346,0.43178752064704895,-0.6125150918960571,9.743242263793945,1.0829780101776123,0.3639988601207733
0.72,-0.22834265232086182,0.03781326860189438,-0.006156308576464653,-1.063744306564331,0.10802479833364487,-0.01164504885673523,0.06161915883421898,-0.3795236349105835,0.4492341876029968,-0.350445419549942,-0.22834265232086182,0.03781326860189438,-0.006156308576464653,-1.063744306564331,0.10802479833364487,-0.01164504885673523,0.06161915883421898,-0.3795236349105835,0.4492341876029968,-0.350445419549942,-0.2619849443435669,-0.7537813782691956,1.5389894247055054,-4.584774971008301,-0.10606016963720322,-0.9658316969871521,0.8531908988952637,-0.20718075335025787,-0.49001526832580566,0.03934112563729286,-0.1339067667722702,-0.1556161791086197,0.0370512492954731,-1.2492834329605103,0.24789032340049744,-0.16798973083496094,0.2503960132598877,-0.39785218238830566,0.4019683301448822,-0.27292364835739136,-7.816550254821777,-1.4793294668197632,-1.8694566488265991,-0.30485638976097107,0.31940045952796936,-0.6851517558097839,9.725852012634277,1.2024949789047241,0.44487518072128296
0.74,-0.2231481373310089,0.017266152426600456,0.015719369053840637,-1.131605863571167,0.15959566831588745,-0.03205186873674393,0.07687465846538544,-0.3861486613750458,0.44262900948524475,-0.35215288400650024,-0.2231481373310089,0.017266152426600456,0.015719369053840637,-1.131605863571167,0.15959566831588745,-0.03205186873674393,0.07687465846538544,-0.3861486613750458,0.44262900948524475,-0.35215288400650024,0.5949657559394836,-1.2613006830215454,0.7353368401527405,-2.4083476066589355,3.9528262615203857,-1.0153928995132446,0.6807683706283569,-0.39878877997398376,-0.181265726685524,-0.18906906247138977,-0.062352776527404785,-0.1443246752023697,0.035878706723451614,-1.3154324293136597,0.3171709477901459,-0.11214405298233032,0.2366020381450653,-0.32995501160621643,0.4428497850894928,-0.33099523186683655,-7.856626510620117,-1.85884690284729,-2.298053741455078,-0.4780089855194092,0.20848946273326874,-0.8476110696792603,9.703512191772461,1.348901391029358,0.5083407163619995
0.76,-0.20952190458774567,-0.006909547373652458,0.028295312076807022,-1.1777148246765137,0.24096864461898804,-0.048184800893068314,0.09163433313369751,-0.38453707098960876,0.44757115840911865,-0.361050546169281,-0.20952190458774567,-0.006909547373652458,0.028295312076807022,-1.1777148246765137,0.24096864461898804,-0.048184800893068314,0.09163433313369751,-0.38453707098960876,0.44757115840911865,-0.361050546169281,0.7947826385498047,-1.1738322973251343,0.5503438711166382,-2.3574366569519043,3.7682368755340576,-0.6748899221420288,0.7314671874046326,0.420132040977478,0.6573514342308044,-0.9273806214332581,0.041396915912628174,-0.1798298954963684,0.041776202619075775,-1.261045217514038,0.6953070759773254,-0.09477484226226807,0.1711796522140503,-0.3170628547668457,0.5074231624603271,-0.47074970602989197,-11.255213737487793,-1.941497802734375,-4.333434104919434,-0.42333701252937317,0.21392269432544708,-0.8147215843200684,9.678086280822754,1.5028789043426514,0.558660626411438
0.78,-0.18692834675312042,-0.03154126554727554,0.03654777258634567,-1.2121144533157349,0.4302299916744232,-0.058468613773584366,0.10521049052476883,-0.3697638511657715,0.4688720703125,-0.3778870403766632,-0.18692834675312042,-0.03154126554727554,0.03654777258634567,-1.2121144533157349,0.4302299916744232,-0.058468613773584366,0.10521049052476883,-0.3697638511657715,0.4688720703125,-0.3778870403766632,1.3695498704910278,-1.2879244089126587,0.3572646975517273,-1.054125428199768,12.592276573181152,-0.35053372383117676,0.6365892291069031,1.0502595901489258,1.3684872388839722,-0.4968288540840149,0.19490951299667358,-0.18786445260047913,0.09074591845273972,-1.2231593132019043,0.7753357291221619,-0.04953250288963318,0.20562902092933655,-0.3105858564376831,0.5945401191711426,-0.44767171144485474,-3.127821922302246,-0.903071939945221,-1.8573113679885864,-0.3995994031429291,0.010480333119630814,-0.9063525199890137,9.649444580078125,1.6669620275497437,0.5878435373306274
0.8,-0.15228846669197083,-0.05490276589989662,0.05126463621854782,-1.2195478677749634,0.6261285543441772,-0.0643245056271553,0.11461210995912552,-0.3511502742767334,0.5096595883369446,-0.408615380525589,-0.15228846669197083,-0.05490276589989662,0.05126463621854782,-1.2195478677749634,0.6261285543441772,-0.0643245056271553,0.11461210995912552,-0.3511502742767334,0.5096595883369446,-0.408615380525589,2.0247416496276855,-1.112097978591919,1.064225673675537,0.04290095716714859,7.565319538116455,-0.20721179246902466,0.3451992869377136,0.7981551885604858,2.5877676010131836,-2.3317952156066895,0.120583176612854,-0.09896703064441681,0.11399488896131516,-1.1154510974884033,1.0048787593841553,0.16453680396080017,0.2559441328048706,-0.3091054856777191,0.6641881465911865,-0.4359084963798523,-12.21777629852295,-2.328481912612915,-5.120413303375244,-0.4062797725200653,-0.05781906470656395,-1.0568461418151855,9.615300178527832,1.8540537357330322,0.5870146751403809
0.82,-0.11835198104381561,-0.06758313626050949,0.07826504111289978,-1.2038567066192627,0.806854248046875,-0.05477748066186905,0.1254865676164627,-0.33483850955963135,0.5700846314430237,-0.44722092151641846,-0.11835198104381561,-0.06758313626050949,0.07826504111289978,-1.2038567066192627,0.806854248046875,-0.05477748066186905,0.1254865676164627,-0.33483850955963135,0.5700846314430237,-0.44722092151641846,1.461874008178711,-0.34424856305122375,1.472062587738037,1.5227612257003784,9.571678161621094,0.9159776568412781,0.5358641743659973,0.5229714512825012,3.4691171646118164,-2.6324374675750732,0.0341259241104126,-0.1603781282901764,0.1362672597169876,-0.964194655418396,1.028515100479126,0.25455689430236816,0.25864988565444946,-0.31170976161956787,0.7555564045906067,-0.41596102714538574,-11.599268913269043,-3.5734989643096924,-4.429213523864746,-0.4331071674823761,0.08987888693809509,-0.4936179518699646,9.584565162658691,2.0041654109954834,0.5962625741958618
0.84,-0.09575308114290237,-0.07629778981208801,0.10284430533647537,-1.153154730796814,0.9371978044509888,-0.028783295303583145,0.13463592529296875,-0.3279794156551361,0.6395775079727173,-0.4897453486919403,-0.09575308114290237,-0.07629778981208801,0.10284430533647537,-1.153154730796814,0.9371978044509888,-0.028783295303583145,0.13463592529296875,-0.3279794156551361,0.6395775079727173,-0.4897453486919403,0.902110755443573,-0.5657256245613098,1.130344033241272,3.363725185394287,4.504073619842529,1.5034111738204956,0.3002047836780548,0.1280863881111145,3.701765298843384,-2.6399688720703125,-0.005704909563064575,-0.1888171285390854,0.1293918937444687,-0.7718877792358398,0.9946450591087341,0.2738804221153259,0.2735941410064697,-0.2652598023414612,0.7709764242172241,-0.49001723527908325,-7.579489707946777,-2.621246099472046,-2.832315444946289,-0.2568390667438507,-0.05732911452651024,-0.04836543649435043,9.574061393737793,2.0489137172698975,0.6126930713653564
0.86,-0.08061125129461288,-0.08896350860595703,0.11930976063013077,-1.0641676187515259,0.9789465665817261,0.0015907674096524715,0.14394795894622803,-0.3170395791530609,0.70672208070755,-0.5297828912734985,-0.08061125129461288,-0.08896350860595703,0.11930976063013077,-1.0641676187515259,0.9789465665817261,0.0015907674096524715,0.14394795894622803,-0.3170395791530609,0.70672208070755,-0.5297828912734985,0.6069324612617493,-0.7558454275131226,0.573807954788208,5.293164253234863,0.6766605973243713,1.4789928197860718,0.4754417836666107,0.8063189387321472,3.316307306289673,-2.3729469776153564,-0.09713581204414368,-0.16353259980678558,0.12984032928943634,-0.6409912109375,0.8757741451263428,0.3149948716163635,0.25555431842803955,-0.23486328125,0.8658403754234314,-0.5470069050788879,-12.477157592773438,-3.1065621376037598,-5.6483869552612305,0.1408856362104416,-0.0525408536195755,0.1761600375175476,9.57727336883545,2.036376953125,0.6042435169219971
0.88,-0.07589342445135117,-0.10191119462251663,0.12843738496303558,-0.9518958926200867,0.9411340951919556,0.03355596959590912,0.1555134803056717,-0.2958713173866272,0.7714008092880249,-0.5702911019325256,-0.07589342445135117,-0.10191119462251663,0.12843738496303558,-0.9518958926200867,0.9411340951919556,0.03355596959590912,0.1555134803056717,-0.2958713173866272,0.7714008092880249,-0.5702911019325256,-0.01596135087311268,-0.6161019802093506,0.35650917887687683,5.811683177947998,-3.125946283340454,1.65582275390625,0.5389371514320374,1.1210503578186035,3.380218982696533,-2.445361375808716,-0.07839310169219971,-0.23765535652637482,0.2201511710882187,-0.5538040995597839,0.7033787965774536,0.32881975173950195,0.20545005798339844,-0.21327927708625793,0.8671872019767761,-0.5693333148956299,-9.83862590789795,-1.8533750772476196,-4.835257053375244,0.647165060043335,-0.09998612850904465,0.4523307979106903,9.591102600097656,1.9820404052734375,0.5642319917678833
0.9,-0.07736145704984665,-0.11706016957759857,0.14950887858867645,-0.83800208568573,0.8335604667663574,0.06194081902503967,0.16065344214439392,-0.2745741009712219,0.8347235321998596,-0.6141676902770996,-0.07736145704984665,-0.11706016957759857,0.14950887858867645,-0.83800208568573,0.8335604667663574,0.06194081902503967,0.16065344214439392,-0.2745741009712219,0.8347235321998596,-0.6141676902770996,-0.11502725630998611,-0.8978742957115173,1.8455935716629028,5.539205074310303,-6.295195579528809,1.2638142108917236,0.05085136368870735,1.1114345788955688,3.0311310291290283,-2.2016358375549316,-0.4053006172180176,-0.1297413557767868,0.17904020845890045,-0.5786662101745605,0.4495166540145874,0.34686052799224854,0.10899004340171814,-0.2139190137386322,0.8616766929626465,-0.3563554286956787,-6.77225923538208,-2.0818231105804443,-4.005581378936768,1.1856659650802612,-0.4927247166633606,0.4194062352180481,9.610540390014648,1.9118362665176392,0.4674266278743744
0.92,-0.10822330415248871,-0.11888273060321808,0.15199622511863708,-0.8137012720108032,0.5335731506347656,0.0804947093129158,0.16740599274635315,-0.2589603364467621,0.879623532295227,-0.6372336745262146,-0.10822330415248871,-0.11888273060321808,0.15199622511863708,-0.8137012720108032,0.5335731506347656,0.0804947093129158,0.16740599274635315,-0.2589603364467621,0.879623532295227,-0.6372336745262146,-1.732790470123291,0.48207518458366394,0.3773401081562042,-2.2375996112823486,-1.0188343524932861,0.9511687159538269,0.42644861340522766,0.4172159433364868,1.7876050472259521,-0.6305459141731262,-0.2883263826370239,-0.1591317504644394,0.28600579500198364,-0.6872424483299255,0.2726881206035614,0.39740800857543945,-0.0027928128838539124,-0.33806726336479187,1.0869084596633911,-0.11415532231330872,-52.19343566894531,-7.698034286499023,17.37262725830078,0.8691417574882507,-0.41359779238700867,0.45068255066871643,9.623653411865234,1.865710735321045,0.374866783618927
0.94,-0.1322920024394989,-0.11382342129945755,0.1583484560251236,-0.8510010242462158,0.5568128228187561,0.10815607756376266,0.1597776859998703,-0.2838937044143677,0.9245998859405518,-0.6151522397994995,-0.1322920024394989,-0.11382342129945755,0.1583484560251236,-0.8510010242462158,0.5568128228187561,0.10815607756376266,0.1597776859998703,-0.2838937044143677,0.9245998859405518,-0.6151522397994995,-0.7797228693962097,0.02138352394104004,0.367925763130188,-1.0840785503387451,0.6412026882171631,1.7058806419372559,-0.9750962853431702,-2.2189512252807617,2.857757091522217,2.330756187438965,-0.08747094869613647,-0.1532992571592331,0.246457040309906,-0.534919798374176,0.357893168926239,0.20146706700325012,-0.046656884253025055,-0.3726999759674072,1.012455940246582,-0.18146869540214539,-16.63625144958496,-2.17278790473938,3.2836899757385254,0.07057399302721024,-0.46269795298576355,0.3478725850582123,9.640238761901855,1.7908769845962524,0.30765941739082336
0.96,-0.12875494360923767,-0.11483326554298401,0.1655104160308838,-0.8499590754508972,0.5586069226264954,0.1264512836933136,0.13820424675941467,-0.3294440805912018,0.9690971374511719,-0.5539910197257996,-0.12875494360923767,-0.11483326554298401,0.1655104160308838,-0.8499590754508972,0.5586069226264954,0.1264512836933136,0.13820424675941467,-0.3294440805912018,0.9690971374511719,-0.5539910197257996,0.7751189470291138,-0.08969584852457047,0.3366909921169281,0.9284281134605408,-0.39263099431991577,0.4168529510498047,-1.1147466897964478,-2.2751238346099854,1.671454906463623,3.6039974689483643,-0.09666311740875244,-0.12781545519828796,0.1655050814151764,-0.5323024392127991,0.3193812370300293,0.16656796634197235,-0.03444019705057144,-0.4105812609195709,1.0053268671035767,-0.14870083332061768,-17.155858993530273,-4.273822784423828,2.93796706199646,0.277079313993454,-0.40264883637428284,-0.2832776606082916,9.642352104187012,1.7929952144622803,0.2151891142129898
0.98,-0.11252123862504959,-0.11624922603368759,0.17194300889968872,-0.8194980621337891,0.5421095490455627,0.13449640572071075,0.11741650104522705,-0.37028661370277405,0.9945909380912781,-0.4746427834033966,-0.11252123862504959,-0.11624922603368759,0.17194300889968872,-0.8194980621337891,0.5421095490455627,0.13449640572071075,0.11741650104522705,-0.37028661370277405,0.9945909380912781,-0.4746427834033966,0.7941910624504089,-0.0284593366086483,0.30180561542510986,1.9141180515289307,-1.1147335767745972,0.40269482135772705,-0.9543771743774414,-1.9389913082122803,0.9503685832023621,4.108876705169678,-0.10349734127521515,-0.12339835613965988,0.07885299623012543,-0.5589927434921265,0.16959381103515625,0.16344325244426727,-0.05092935264110565,-0.45014169812202454,0.9889594912528992,-0.15208053588867188,-12.439146041870117,-3.483848810195923,1.8059018850326538,0.49454978108406067,-0.2527453303337097,-0.035703472793102264,9.637929916381836,1.8242831230163574,0.13567082583904266
1.0,-0.09946849197149277,-0.11807293444871902,0.169050931930542,-0.7778917551040649,0.5152309536933899,0.14251747727394104,0.09891612827777863,-0.41013380885124207,1.0065245628356934,-0.39356091618537903,-0.09946849197149277,-0.11807293444871902,0.169050931930542,-0.7778917551040649,0.5152309536933899,0.14251747727394104,0.09891612827777863,-0.41013380885124207,1.0065245628356934,-0.39356091618537903,0.5409570932388306,-0.19698671996593475,-1.0715411901474,2.183919906616211,-1.4412018060684204,0.3783114552497864,-0.8865020275115967,-2.0573995113372803,0.3302237391471863,3.8870930671691895,-0.09422498941421509,-0.10439936071634293,-0.008825987577438354,-0.536741316318512,0.04916411638259888,0.11508239805698395,0.014290332794189453,-0.47822830080986023,0.9377120733261108,-0.15796011686325073,-8.146167755126953,-2.116835594177246,1.0909628868103027,0.5680840611457825,-0.15585148334503174,0.2201576977968216,9.642454147338867,1.803695559501648,0.07656266540288925
1.02,-0.08975796401500702,-0.1199774444103241,0.13130401074886322,-0.7345156669616699,0.4814855754375458,0.14572738111019135,0.08839178830385208,-0.44762107729911804,1.0041831731796265,-0.32579371333122253,-0.08975796401500702,-0.1199774444103241,0.13130401074886322,-0.7345156669616699,0.4814855754375458,0.14572738111019135,0.08839178830385208,-0.44762107729911804,1.0041831731796265,-0.32579371333122253,0.4291660189628601,-0.09790027141571045,-3.214811086654663,2.236678123474121,-1.7685489654541016,0.00263981893658638,-0.2597683370113373,-1.7537215948104858,-0.44729533791542053,2.8912417888641357,-0.27948129177093506,-0.1220100000500679,-0.06656116247177124,-0.5147222280502319,0.030322551727294922,0.3115173578262329,0.06251482665538788,-0.502441942691803,0.8955485820770264,-0.07844766974449158,-7.40525484085083,-1.8386445045471191,1.1484025716781616,0.6992120146751404,0.1362518072128296,0.307851105928421,9.651907920837402,1.7532545328140259,0.053563665598630905
1.04,-0.09500222653150558,-0.11984781175851822,0.06429657340049744,-0.6964666247367859,0.4404158592224121,0.15714028477668762,0.08687739819288254,-0.4780428111553192,0.995093584060669,-0.2715736925601959,-0.09500222653150558,-0.11984781175851822,0.06429657340049744,-0.6964666247367859,0.4404158592224121,0.15714028477668762,0.08687739819288254,-0.4780428111553192,0.995093584060669,-0.2715736925601959,-0.719650387763977,0.010742083191871643,-4.059747219085693,1.9496052265167236,-1.7033013105392456,0.9548909664154053,0.02599254809319973,-1.308255672454834,-0.5425744652748108,2.484520435333252,-0.2299042046070099,-0.05215708166360855,-0.04662945121526718,-0.5035457611083984,0.16326898336410522,0.2451896220445633,0.05953490734100342,-0.3910425007343292,1.0140833854675293,-0.38832253217697144,-8.332754135131836,-2.465364933013916,-0.20950570702552795,0.8197885751724243,0.2565779983997345,1.1204016208648682,9.675227165222168,1.6188688278198242,0.0731511041522026
1.06,-0.10788879543542862,-0.11439334601163864,0.013517881743609905,-0.6552704572677612,0.40307191014289856,0.17272034287452698,0.08999241888523102,-0.479209303855896,0.9915260672569275,-0.3038356900215149,-0.10788879543542862,-0.11439334601163864,0.013517881743609905,-0.6552704572677612,0.40307191014289856,0.17272034287452698,0.08999241888523102,-0.479209303855896,0.9915260672569275,-0.3038356900215149,-0.5287925601005554,0.46459630131721497,-1.6085174083709717,2.068906545639038,-0.9486002922058105,0.6126426458358765,0.12600909173488617,1.2388733625411987,0.22499750554561615,-3.924422025680542,-0.24987950921058655,-0.08272608369588852,-0.06644762307405472,-0.47031694650650024,0.2372940182685852,0.20675329864025116,-0.07456177473068237,-0.21773453056812286,1.181880235671997,-0.3300444483757019,-3.700446128845215,-0.30711960792541504,0.9174797534942627,1.094506859779358,0.33721405267715454,1.041495680809021,9.708974838256836,1.4006516933441162,0.10039953887462616
1.08,-0.11918753385543823,-0.10852184891700745,0.007202198728919029,-0.6206179857254028,0.37551894783973694,0.18389523029327393,0.08283530920743942,-0.4202491343021393,1.021004557609558,-0.3374093472957611,-0.11918753385543823,-0.10852184891700745,0.007202198728919029,-0.6206179857254028,0.37551894783973694,0.18389523029327393,0.08283530920743942,-0.4202491343021393,1.021004557609558,-0.3374093472957611,-0.5158199667930603,0.054796360433101654,-0.37384021282196045,1.7188950777053833,-3.040005922317505,0.4338211417198181,-0.7781961560249329,4.5201802253723145,2.5380702018737793,-0.1072399839758873,-0.11747303605079651,-0.14098115265369415,-0.021220006048679352,-0.361078679561615,0.37572646141052246,0.21554507315158844,-0.23412738740444183,-0.17042282223701477,1.0135141611099243,-0.29739266633987427,-0.7051337361335754,-0.07875855267047882,0.19810333847999573,1.0490148067474365,0.184251070022583,0.7949754595756531,9.732876777648926,1.2216426134109497,0.12167027592658997
1.1,-0.12235719710588455,-0.10799753665924072,0.006724708713591099,-0.5875077247619629,0.3535122275352478,0.18535096943378448,0.05618112161755562,-0.3283161222934723,1.0451431274414062,-0.3177955746650696,-0.12235719710588455,-0.10799753665924072,0.006724708713591099,-0.5875077247619629,0.3535122275352478,0.18535096943378448,0.05618112161755562,-0.3283161222934723,1.0451431274414062,-0.3177955746650696,0.07148680835962296,0.005173835437744856,0.037317365407943726,1.8480901718139648,-0.975062370300293,-0.032260071486234665,-1.803175926208496,4.475624084472656,-0.09096518903970718,1.2414627075195312,-0.24512764811515808,-0.1521741896867752,-0.1622457355260849,-0.5468382835388184,-0.12185060977935791,-0.04447418451309204,-0.28728988766670227,-0.12240023165941238,0.7436612248420715,-0.39946824312210083,-10.818662643432617,-1.9439712762832642,3.8168227672576904,0.5970220565795898,0.011382031254470348,0.5810108184814453,9.7476806640625,1.0977511405944824,0.11734838038682938
1.12,-0.12578335404396057,-0.11148925125598907,-0.023199807852506638,-0.5651051998138428,0.3254454433917999,0.1727573126554489,0.014857359230518341,-0.24386897683143616,0.9946677684783936,-0.33906683325767517,-0.12578335404396057,-0.11148925125598907,-0.023199807852506638,-0.5651051998138428,0.3254454433917999,0.1727573126554489,0.014857359230518341,-0.24386897683143616,0.9946677684783936,-0.33906683325767517,-0.49820125102996826,-0.2521727681159973,-3.4081692695617676,0.2645549476146698,-0.08388339728116989,-1.1421892642974854,-2.1782472133636475,4.024054527282715,-4.399058818817139,-2.5097434520721436,-0.2748602330684662,0.0016753021627664566,-0.18831072747707367,-0.5497955083847046,-0.6848437786102295,-0.1308290958404541,-0.21125519275665283,-0.12399433553218842,0.4670116603374481,-0.4633607566356659,-4.279255390167236,-0.11997947841882706,2.21472430229187,0.7599054574966431,-0.007304053753614426,0.5088334679603577,9.759138107299805,0.9920480847358704,0.10563270002603531
1.14,-0.13842174410820007,-0.10681384801864624,-0.09207085520029068,-0.562255859375,0.31511420011520386,0.1426844447851181,-0.019160771742463112,-0.17791886627674103,0.8718206286430359,-0.3963303565979004,-0.13842174410820007,-0.10681384801864624,-0.09207085520029068,-0.562255859375,0.31511420011520386,0.1426844447851181,-0.019160771742463112,-0.17791886627674103,0.8718206286430359,-0.3963303565979004,-0.7658902406692505,0.6727800369262695,-3.146329879760742,0.07378009706735611,-0.6664462685585022,-1.6647261381149292,-1.3384976387023926,2.464085102081299,-7.4050092697143555,-3.0141658782958984,-0.2929363548755646,0.3525322675704956,0.00952508207410574,-0.6051512956619263,-0.35062360763549805,-0.43664735555648804,0.1435987651348114,-0.4008370339870453,0.15299314260482788,-0.2285151183605194,-3.784757137298584,-0.11944228410720825,3.0580694675445557,1.0383152961730957,0.6491248607635498,0.5554149150848389,9.768110275268555,0.893451988697052,0.1478489637374878
1.16,-0.1520344465970993,-0.06806178390979767,-0.09076567739248276,-0.5628432631492615,0.28782495856285095,0.08858344703912735,-0.021391544491052628,-0.19677622616291046,0.7131767272949219,-0.4758390784263611,-0.1520344465970993,-0.06806178390979767,-0.09076567739248276,-0.5628432631492615,0.28782495856285095,0.08858344703912735,-0.021391544491052628,-0.19677622616291046,0.7131767272949219,-0.4758390784263611,-0.8367679715156555,2.8630170822143555,2.657660484313965,-0.169486865401268,-1.554142713546753,-3.689467191696167,1.2687500715255737,-4.130839824676514,-7.1091461181640625,-10.514101028442383,-0.3479672372341156,0.03805433213710785,-0.011001963168382645,-1.1835741996765137,-0.27894824743270874,-0.23890221118927002,0.1779487431049347,-0.45296621322631836,0.24681204557418823,0.2928723692893982,-10.834836959838867,-3.0774829387664795,-1.8615162372589111,1.6481467485427856,1.9401299953460693,0.2206578403711319,9.768050193786621,0.8251233100891113,0.37479862570762634
1.18,-0.1818435937166214,-0.03878524899482727,-0.05349334701895714,-0.64150071144104,0.2418312132358551,0.04340994730591774,-0.0030906610190868378,-0.24783408641815186,0.6219009757041931,-0.4793873429298401,-0.1818435937166214,-0.03878524899482727,-0.05349334701895714,-0.64150071144104,0.2418312132358551,0.04340994730591774,-0.0030906610190868378,-0.24783408641815186,0.6219009757041931,-0.4793873429298401,-1.3379085063934326,0.3567368984222412,1.340911626815796,-7.476419925689697,-7.859602451324463,-1.977682113647461,0.9164842963218689,0.12774145603179932,-2.5592145919799805,0.7359667420387268,-0.4352935254573822,-0.026145055890083313,-0.07759219408035278,-1.194892168045044,-0.3960420489311218,-0.21713793277740479,0.16345444321632385,-0.40328481793403625,0.3820294439792633,-0.025433748960494995,-14.393972396850586,-0.7493038773536682,-6.812817096710205,1.4197180271148682,0.48908841609954834,-0.3036132752895355,9.758639335632324,0.79161536693573,0.6151509284973145
1.2,-0.21899017691612244,-0.03526223078370094,-0.04921751841902733,-0.7801756858825684,0.12850934267044067,0.0023659414146095514,0.013792520388960838,-0.29182133078575134,0.5605272054672241,-0.4368760883808136,-0.21899017691612244,-0.03526223078370094,-0.04921751841902733,-0.7801756858825684,0.12850934267044067,0.0023659414146095514,0.013792520388960838,-0.29182133078575134,0.5605272054672241,-0.4368760883808136,-2.0023486614227295,0.030555663630366325,-0.6427243947982788,-6.482244968414307,-11.535038948059082,-1.909873366355896,0.8213041424751282,-3.1364810466766357,-2.841763496398926,2.3971853256225586,-0.4848042130470276,0.02166716754436493,0.020271148532629013,-1.2418317794799805,0.08955702185630798,-0.10925412178039551,0.1591060757637024,-0.40654686093330383,0.4028724133968353,-0.029538273811340332,-4.691645622253418,0.49673348665237427,-1.519081473350525,1.0263473987579346,0.48452523350715637,-0.30129459500312805,9.747159957885742,0.8720748424530029,0.6844459176063538
1.22,-0.2593252658843994,-0.030994808301329613,-0.042574383318424225,-0.9044650793075562,0.06425678730010986,-0.026777325198054314,0.031063156202435493,-0.3450550436973572,0.5171594023704529,-0.3920283019542694,-0.2593252658843994,-0.030994808301329613,-0.042574383318424225,-0.9044650793075562,0.06425678730010986,-0.026777325198054314,0.031063156202435493,-0.3450550436973572,0.5171594023704529,-0.3920283019542694,-1.8127468824386597,0.3532685935497284,1.3388060331344604,-6.141263961791992,0.8303588628768921,-1.0846030712127686,0.8124002814292908,-2.138505697250366,-1.646888256072998,2.020519495010376,-0.35634279251098633,-0.029655680060386658,0.03361948952078819,-1.2959144115447998,0.10340219736099243,-0.19558244943618774,0.18290241062641144,-0.4167313873767853,0.4119054079055786,-0.1578957736492157,-5.428116798400879,-1.0829447507858276,-2.0795652866363525,0.5621044039726257,0.4603535234928131,-0.21344375610351562,9.734784126281738,0.9384883642196655,0.7676723003387451
1.24,-0.282178670167923,-0.026982173323631287,-0.014913396909832954,-1.0160353183746338,0.08414140343666077,-0.04973916709423065,0.046667881309986115,-0.3775174617767334,0.48639777302742004,-0.3634674549102783,-0.282178670167923,-0.026982173323631287,-0.014913396909832954,-1.0160353183746338,0.08414140343666077,-0.04973916709423065,0.046667881309986115,-0.3775174617767334,0.48639777302742004,-0.3634674549102783,-0.6668615937232971,0.06127682328224182,1.3113189935684204,-5.187297344207764,0.8442959189414978,-1.2001245021820068,0.7482118010520935,-1.3645493984222412,-1.3386969566345215,0.9454661011695862,-0.17050963640213013,-0.11919741332530975,0.006457138806581497,-1.3064591884613037,0.22428083419799805,-0.2415674924850464,0.20762616395950317,-0.3903566598892212,0.4051657021045685,-0.25498780608177185,-3.081860303878784,-0.6987118124961853,-0.5176947116851807,0.10700149834156036,0.32108819484710693,-0.504296064376831,9.722041130065918,1.0112268924713135,0.8339253664016724
1.26,-0.2819797098636627,-0.03241966664791107,-0.0010295367101207376,-1.1044543981552124,0.14170844852924347,-0.07618208229541779,0.06149563565850258,-0.39191535115242004,0.4638943076133728,-0.3577621579170227,-0.2819797098636627,-0.03241966664791107,-0.0010295367101207376,-1.1044543981552124,0.14170844852924347,-0.07618208229541779,0.06149563565850258,-0.39191535115242004,0.4638943076133728,-0.3577621579170227,0.48762133717536926,-0.5346243977546692,0.1901494413614273,-3.8194069862365723,3.8405654430389404,-1.3566067218780518,0.7530693411827087,-0.22013436257839203,-0.9230147004127502,-0.30179449915885925,-0.0587887167930603,-0.15270157158374786,0.0037608779966831207,-1.3205935955047607,0.4376525282859802,-0.2656101584434509,0.16291165351867676,-0.41529688239097595,0.4266481101512909,-0.2881006598472595,-2.161844253540039,-1.0657864809036255,0.09021293371915817,-0.385390967130661,0.26673755049705505,-0.7735335230827332,9.703300476074219,1.1337511539459229,0.8925634622573853
1.28,-0.2644663155078888,-0.04692452400922775,-0.0005089771002531052,-1.1701247692108154,0.2749733030796051,-0.10202174633741379,0.0749916359782219,-0.39842620491981506,0.45165854692459106,-0.37819626927375793,-0.2644663155078888,-0.04692452400922775,-0.0005089771002531052,-1.1701247692108154,0.2749733030796051,-0.10202174633741379,0.0749916359782219,-0.39842620491981506,0.45165854692459106,-0.37819626927375793,1.150481104850769,-0.8416959047317505,0.0015568038215860724,-2.8517887592315674,7.809976100921631,-1.2228405475616455,0.5944862365722656,-0.4839457869529724,-0.3456885516643524,-1.6037710905075073,0.02036869525909424,-0.16169287264347076,-0.022826675325632095,-1.320261836051941,0.5855301022529602,-0.18529587984085083,0.09213763475418091,-0.4110698401927948,0.5040808320045471,-0.40155452489852905,-2.254863739013672,-0.7810268998146057,-0.7120595574378967,-0.7408962249755859,0.181472510099411,-0.8423145413398743,9.679739952087402,1.2771518230438232,0.9526913166046143
1.3,-0.23840901255607605,-0.06557536870241165,-0.0032744118943810463,-1.2169114351272583,0.4330484867095947,-0.11907914280891418,0.083279550075531,-0.4060439467430115,0.458514004945755,-0.4281202256679535,-0.23840901255607605,-0.06557536870241165,-0.0032744118943810463,-1.2169114351272583,0.4330484867095947,-0.11907914280891418,0.083279550075531,-0.4060439467430115,0.458514004945755,-0.4281202256679535,1.4660824537277222,-0.9473061561584473,-0.2538143992424011,-1.932050108909607,7.485330581665039,-0.5746235847473145,0.27682939171791077,-0.23652775585651398,0.9038020372390747,-3.259544849395752,0.022409766912460327,-0.08247749507427216,0.04604240506887436,-1.171948790550232,0.7419242858886719,-0.15392285585403442,0.12428432703018188,-0.41795530915260315,0.5557131767272949,-0.31786781549453735,-2.0688016414642334,-0.41059327125549316,-1.1506260633468628,-1.0203185081481934,0.03812480345368385,-0.7454054355621338,9.65682315826416,1.4097522497177124,0.9972285032272339
1.32,-0.20274531841278076,-0.07628491520881653,0.010486473329365253,-1.2264344692230225,0.5852705240249634,-0.1258820742368698,0.07781340926885605,-0.41561242938041687,0.4994819462299347,-0.4568961262702942,-0.20274531841278076,-0.07628491520881653,0.010486473329365253,-1.2264344692230225,0.5852705240249634,-0.1258820742368698,0.07781340926885605,-0.41561242938041687,0.4994819462299347,-0.4568961262702942,1.6352869272232056,-0.05008913576602936,1.200147032737732,0.6447447538375854,7.442923545837402,-0.3070806860923767,-0.1306343376636505,-0.27451926469802856,1.9412624835968018,-1.4401859045028687,-0.0959862470626831,0.007890507578849792,0.08049517124891281,-1.0860170125961304,0.8981388211250305,-0.02408653497695923,0.13161349296569824,-0.406048446893692,0.6271331310272217,-0.20414802432060242,-8.032501220703125,-2.9417524337768555,-3.2642250061035156,-0.33715754747390747,-0.11642549186944962,-0.820235550403595,9.633633613586426,1.5732437372207642,0.9767870903015137
1.34,-0.18120399117469788,-0.07028451561927795,0.040382903069257736,-1.1988450288772583,0.7405354976654053,-0.12315322458744049,0.07612886279821396,-0.4173566699028015,0.5420376062393188,-0.48824307322502136,-0.18120399117469788,-0.07028451561927795,0.040382903069257736,-1.1988450288772583,0.7405354976654053,-0.12315322458744049,0.07612886279821396,-0.4173566699028015,0.5420376062393188,-0.48824307322502136,0.6918609738349915,0.5420980453491211,1.6594120264053345,1.9548462629318237,7.5971198081970215,0.4379791021347046,-0.07353249937295914,0.008387373760342598,2.27164888381958,-1.6674233675003052,-0.09070336818695068,-0.04118634760379791,0.09679680317640305,-0.9253180027008057,0.937579870223999,0.11357802152633667,0.0989312008023262,-0.3680764138698578,0.6965348720550537,-0.21978071331977844,-8.767160415649414,-2.6243577003479004,-3.263256549835205,0.004577009938657284,-0.03957153111696243,-0.22705702483654022,9.618727684020996,1.6686382293701172,0.9653065800666809
1.36,-0.17046676576137543,-0.06325681507587433,0.0667974129319191,-1.1385053396224976,0.851651668548584,-0.10766927152872086,0.07263527065515518,-0.4084811806678772,0.5917571187019348,-0.523269534111023,-0.17046676576137543,-0.06325681507587433,0.0667974129319191,-1.1385053396224976,0.851651668548584,-0.10766927152872086,0.07263527065515518,-0.4084811806678772,0.5917571187019348,-0.523269534111023,0.45445874333381653,0.1726900190114975,1.1136360168457031,3.8754796981811523,4.196654796600342,1.0496617555618286,-0.2687828838825226,0.4520636796951294,2.694826602935791,-1.8640775680541992,0.0010484755039215088,-0.038022056221961975,0.07424270361661911,-0.7847622036933899,0.939601480960846,0.09323039650917053,0.14371846616268158,-0.3617355227470398,0.7362769842147827,-0.39476311206817627,-10.58777141571045,-2.3859822750091553,-4.397878646850586,-0.008976894430816174,-0.18074961006641388,0.1512422114610672,9.619608879089355,1.6782737970352173,0.9394757151603699
1.38,-0.15541338920593262,-0.05886454880237579,0.07998964935541153,-1.047086238861084,0.9042290449142456,-0.08962148427963257,0.069741390645504,-0.3996301293373108,0.6442998647689819,-0.5578956007957458,-0.15541338920593262,-0.05886454880237579,0.07998964935541153,-1.047086238861084,0.9042290449142456,-0.08962148427963257,0.069741390645504,-0.3996301293373108,0.6442998647689819,-0.5578956007957458,0.9133727550506592,0.24867603182792664,0.18298155069351196,4.990182399749756,1.6961811780929565,0.7679086923599243,0.03267451003193855,0.9270554184913635,2.5402355194091797,-2.891658306121826,-0.11598744988441467,0.0454249233007431,0.08027230948209763,-0.6023293137550354,0.733806848526001,0.05879202485084534,0.1615109145641327,-0.3640163838863373,0.7802157998085022,-0.4378451108932495,-3.540532350540161,-2.1883187294006348,-0.8353614807128906,0.08662260323762894,-0.11059176921844482,0.048935454338788986,9.62597942352295,1.6633412837982178,0.8999519944190979
1.4,-0.140602707862854,-0.04911423847079277,0.0842788890004158,-0.9349167943000793,0.8442303538322449,-0.07205461710691452,0.06951303780078888,-0.3889424204826355,0.7006296515464783,-0.6035681962966919,-0.140602707862854,-0.04911423847079277,0.0842788890004158,-0.9349167943000793,0.8442303538322449,-0.07205461710691452,0.06951303780078888,-0.3889424204826355,0.7006296515464783,-0.6035681962966919,0.48615798354148865,0.720501720905304,0.19069191813468933,6.0800299644470215,-5.341001987457275,0.8502150177955627,0.0871540978550911,0.6993817090988159,2.6918511390686035,-2.1173973083496094,-0.18504032492637634,-0.07653437554836273,0.040852002799510956,-0.5240473747253418,0.5254228711128235,0.15259653329849243,0.07441279292106628,-0.28630658984184265,0.828785240650177,-0.36380910873413086,-7.532388687133789,-2.391533613204956,-3.039510726928711,0.6432116031646729,-0.0021092796232551336,0.20317058265209198,9.631156921386719,1.6483980417251587,0.8716061115264893
1.42,-0.13970783352851868,-0.04523627832531929,0.07382497191429138,-0.8177908062934875,0.6937134861946106,-0.051991548389196396,0.06676007062196732,-0.36324992775917053,0.7535882592201233,-0.6446976661682129,-0.13970783352851868,-0.04523627832531929,0.07382497191429138,-0.8177908062934875,0.6937134861946106,-0.051991548389196396,0.06676007062196732,-0.36324992775917053,0.7535882592201233,-0.6446976661682129,-0.23267923295497894,-0.22887490689754486,-0.9683297872543335,5.625385761260986,-8.245546340942383,1.0850772857666016,-0.3646789789199829,1.4024662971496582,2.628023624420166,-2.027064561843872,-0.44223493337631226,-0.10653328895568848,0.1844194233417511,-0.5907108187675476,0.7290440201759338,0.15389932692050934,0.039429157972335815,-0.2095174491405487,0.8331778645515442,-0.25589749217033386,-7.186022758483887,-1.8265256881713867,-3.23103928565979,1.088388204574585,-0.41789528727531433,0.5009527802467346,9.645883560180664,1.5952098369598389,0.8051918148994446
1.44,-0.16479595005512238,-0.04606752097606659,0.08502452075481415,-0.7594488859176636,0.5369373559951782,-0.0315738283097744,0.060173455625772476,-0.3230823874473572,0.7996033430099487,-0.6802084445953369,-0.16479595005512238,-0.04606752097606659,0.08502452075481415,-0.7594488859176636,0.5369373559951782,-0.0315738283097744,0.060173455625772476,-0.3230823874473572,0.7996033430099487,-0.6802084445953369,-1.9039723873138428,0.11550874263048172,1.458402395248413,0.1482924222946167,-13.125282287597656,0.6792164444923401,-0.11777154356241226,2.825212240219116,1.7935694456100464,-1.279253602027893,-0.38675957918167114,-0.08787228912115097,0.13962388038635254,-0.5857484936714172,0.5031604170799255,0.22616253793239594,0.014154449105262756,-0.26579782366752625,0.9273467659950256,0.06525814533233643,-11.372314453125,-2.8069167137145996,-0.8015686869621277,1.8366085290908813,-0.3678472638130188,0.5589730739593506,9.672175407409668,1.4977967739105225,0.664621889591217
1.46,-0.19555948674678802,-0.04187730327248573,0.10625771433115005,-0.781032919883728,0.44863373041152954,-0.014147256501019001,0.05815985053777695,-0.28344547748565674,0.840336263179779,-0.6907197833061218,-0.19555948674678802,-0.04187730327248573,0.10625771433115005,-0.781032919883728,0.44863373041152954,-0.014147256501019001,0.05815985053777695,-0.28344547748565674,0.840336263179779,-0.6907197833061218,-1.128928780555725,0.3965579867362976,0.6694424748420715,-1.7474433183670044,1.4268176555633545,1.053945541381836,-0.07448074966669083,0.770634651184082,2.315290927886963,0.4924554228782654,-0.28082481026649475,-0.12404095381498337,0.12233275920152664,-0.5816538333892822,0.32538044452667236,0.16326464712619781,-0.05507399141788483,-0.32678520679473877,0.9594237804412842,-0.0720033049583435,-19.613245010375977,-3.7170495986938477,2.727090835571289,0.9446843862533569,-0.1068597361445427,0.39461949467658997,9.690719604492188,1.4198933839797974,0.5567430257797241
1.48,-0.2049950808286667,-0.03971821442246437,0.11291368305683136,-0.7927388548851013,0.4592623710632324,0.006269903853535652,0.049458377063274384,-0.29233336448669434,0.8837839365005493,-0.6629940867424011,-0.2049950808286667,-0.03971821442246437,0.11291368305683136,-0.7927388548851013,0.4592623710632324,0.006269903853535652,0.049458377063274384,-0.29233336448669434,0.8837839365005493,-0.6629940867424011,-0.07369731366634369,-0.07080533355474472,0.17477431893348694,0.1197715625166893,0.07366231828927994,0.9755449891090393,-0.6838106513023376,-1.185614824295044,2.011516571044922,2.008056402206421,-0.12095724046230316,-0.1488589495420456,0.09768963605165482,-0.5494880676269531,0.3100278973579407,0.0778660774230957,-0.09918831288814545,-0.3605943024158478,0.9593923091888428,-0.15982162952423096,-15.429825782775879,-2.85257887840271,1.5332199335098267,0.35255804657936096,-0.271011620759964,0.2561159133911133,9.70187759399414,1.3627092838287354,0.5026872158050537
1.5,-0.19572730362415314,-0.04419377073645592,0.11377478390932083,-0.7769363522529602,0.45453697443008423,0.019370470196008682,0.03296063095331192,-0.3220052719116211,0.9158419370651245,-0.6124035120010376,-0.19572730362415314,-0.04419377073645592,0.11377478390932083,-0.7769363522529602,0.45453697443008423,0.019370470196008682,0.03296063095331192,-0.3220052719116211,0.9158419370651245,-0.6124035120010376,0.842098593711853,-0.3415958881378174,-0.05119656026363373,1.2605719566345215,-0.4578557312488556,0.45566853880882263,-0.9293542504310608,-1.621625304222107,1.3487492799758911,2.935305118560791,-0.07677143812179565,-0.15120847523212433,0.032900139689445496,-0.5629539489746094,0.19770604372024536,0.0934329628944397,-0.10006006062030792,-0.3933737576007843,0.9679492712020874,-0.17249706387519836,-13.233479499816895,-2.190023183822632,0.8563946485519409,0.12250031530857086,-0.3513796031475067,-0.025950554758310318,9.708283424377441,1.3399146795272827,0.43583551049232483
1.52,-0.17692697048187256,-0.05298759788274765,0.1071895882487297,-0.7455365061759949,0.4415595233440399,0.029538633301854134,0.01412379089742899,-0.3521202802658081,0.9400297403335571,-0.5487874746322632,-0.17692697048187256,-0.05298759788274765,0.1071895882487297,-0.7455365061759949,0.4415595233440399,0.029538633301854134,0.01412379089742899,-0.3521202802658081,0.9400297403335571,-0.5487874746322632,1.0107258558273315,-0.5444926619529724,-0.9141536355018616,1.8256704807281494,-0.719516932964325,0.5467597246170044,-0.9418612122535706,-1.4410765171051025,1.1063671112060547,3.290804147720337,-0.05344873666763306,-0.1777714192867279,-0.010355226695537567,-0.6005523800849915,0.006815493106842041,0.0895383358001709,-0.1000542938709259,-0.3896300494670868,0.9591041803359985,-0.0877724289894104,-8.617512702941895,-1.7315914630889893,-0.3302012085914612,-0.08987817168235779,-0.34843218326568604,0.039183590561151505,9.71152400970459,1.337827205657959,0.36417558789253235
1.54,-0.15848848223686218,-0.06548462808132172,0.07591565698385239,-0.7128188014030457,0.4231082499027252,0.03939815238118172,-0.003069169819355011,-0.3729064464569092,0.9576369524002075,-0.4838995039463043,-0.15848848223686218,-0.06548462808132172,0.07591565698385239,-0.7128188014030457,0.4231082499027252,0.03939815238118172,-0.003069169819355011,-0.3729064464569092,0.9576369524002075,-0.4838995039463043,0.8517761826515198,-0.6975159645080566,-2.2636935710906982,1.4802883863449097,-0.8295925259590149,0.4225611686706543,-0.8148729205131531,-0.7189735770225525,0.7037789225578308,3.2567968368530273,-0.07953369617462158,-0.19127461314201355,-0.08994459360837936,-0.5786384344100952,-0.16157764196395874,0.13355468213558197,-0.07940442860126495,-0.37366652488708496,0.919501543045044,-0.048520416021347046,-9.020069122314453,-0.7106130123138428,-0.2569366991519928,0.011389610357582569,-0.3791778087615967,0.05512262135744095,9.715749740600586,1.3243141174316406,0.2941119074821472
1.56,-0.14472711086273193,-0.08047052472829819,0.015687530860304832,-0.6847203969955444,0.4040411412715912,0.048344239592552185,-0.01668509654700756,-0.3769915699958801,0.9673806428909302,-0.4206264019012451,-0.14472711086273193,-0.08047052472829819,0.015687530860304832,-0.6847203969955444,0.4040411412715912,0.048344239592552185,-0.01668509654700756,-0.3769915699958801,0.9673806428909302,-0.4206264019012451,0.5538233518600464,-0.7503364682197571,-3.4363434314727783,1.3818120956420898,-1.040350317955017,0.468976765871048,-0.5635252594947815,0.14153870940208435,0.27849629521369934,3.0645101070404053,-0.19376157224178314,-0.17159344255924225,-0.16771790385246277,-0.5722418427467346,-0.19891482591629028,0.2417798787355423,-0.044889047741889954,-0.33688509464263916,0.8498491048812866,0.0363619327545166,-9.674094200134277,-1.4241697788238525,-0.3348366618156433,0.25655385851860046,-0.3685949444770813,0.21242493391036987,9.720876693725586,1.3015449047088623,0.21593576669692993
1.58,-0.14284299314022064,-0.09377545863389969,-0.05553700402379036,-0.6604679226875305,0.37955528497695923,0.0623483769595623,-0.023739013820886612,-0.36347758769989014,0.967744767665863,-0.3627951443195343,-0.14284299314022064,-0.09377545863389969,-0.05553700402379036,-0.6604679226875305,0.37955528497695923,0.0623483769595623,-0.023739013820886612,-0.36347758769989014,0.967744767665863,-0.3627951443195343,-0.24024972319602966,-0.6027558445930481,-3.665485382080078,1.1467869281768799,-1.3851618766784668,0.8410020470619202,-0.18630723655223846,1.0311274528503418,-0.26616549491882324,2.729046106338501,-0.24009409546852112,-0.10055787116289139,-0.17053472995758057,-0.5426391959190369,0.05824941396713257,0.2956904172897339,-0.007694363594055176,-0.28196823596954346,0.9449254274368286,-0.23478814959526062,-10.479193687438965,-2.119023561477661,-0.5760534405708313,0.5326658487319946,-0.30823907256126404,0.6964176297187805,9.733377456665039,1.2157200574874878,0.13961932063102722
1.6,-0.15178091824054718,-0.09912572056055069,-0.11219632625579834,-0.6351029872894287,0.3518877327442169,0.08383069187402725,-0.021724166348576546,-0.3357514441013336,0.9642286896705627,-0.3154660761356354,-0.15178091824054718,-0.09912572056055069,-0.11219632625579834,-0.6351029872894287,0.3518877327442169,0.08383069187402725,-0.021724166348576546,-0.3357514441013336,0.9642286896705627,-0.3154660761356354,-0.5477137565612793,-0.002602372085675597,-2.179872989654541,1.3626430034637451,-1.2076988220214844,1.2291455268859863,0.2994147837162018,1.5395350456237793,-0.009673952125012875,1.9530586004257202,-0.1776079535484314,-0.10447517782449722,-0.12044424563646317,-0.4972469210624695,0.27435415983200073,0.2186245322227478,-0.048431217670440674,-0.1774996966123581,1.038234829902649,-0.3219674825668335,-5.084827423095703,-0.25927796959877014,1.0132683515548706,0.6406986713409424,-0.04242132231593132,0.9995038509368896,9.75354290008545,1.047190546989441,0.08881867676973343
1.62,-0.1572132110595703,-0.09847620129585266,-0.13340996205806732,-0.6035781502723694,0.34224411845207214,0.1035538986325264,-0.019188890233635902,-0.2925664484500885,0.9746586680412292,-0.3083856701850891,-0.1572132110595703,-0.09847620129585266,-0.13340996205806732,-0.6035781502723694,0.34224411845207214,0.1035538986325264,-0.019188890233635902,-0.2925664484500885,0.9746586680412292,-0.3083856701850891,-0.0571463517844677,0.037825606763362885,-0.11687681823968887,1.6457048654556274,0.5071644186973572,0.7977300882339478,-0.052080705761909485,2.9264793395996094,0.9779956936836243,-0.5540554523468018,-0.07531571388244629,-0.14054416120052338,-0.09008795022964478,-0.4472251236438751,0.24942231178283691,0.27940553426742554,-0.19035698473453522,-0.12748271226882935,0.9198104739189148,-0.35497426986694336,-1.3821829557418823,0.19450852274894714,-0.012055709026753902,0.8290914297103882,-0.1820814460515976,0.7442096471786499,9.770659446716309,0.8757926225662231,0.05749256908893585
1.64,-0.16089679300785065,-0.09654547274112701,-0.12463045120239258,-0.5841655731201172,0.3359793722629547,0.11440801620483398,-0.02594798617064953,-0.23634473979473114,0.977292001247406,-0.32464730739593506,-0.16089679300785065,-0.09654547274112701,-0.12463045120239258,-0.5841655731201172,0.3359793722629547,0.11440801620483398,-0.02594798617064953,-0.23634473979473114,0.977292001247406,-0.32464730739593506,0.03345204517245293,-0.010680466890335083,0.4047786593437195,1.0272787809371948,-0.6079367995262146,0.49544215202331543,-0.8076433539390564,2.7184107303619385,-0.6264224648475647,-1.0321828126907349,-0.09674286842346191,-0.16864444315433502,-0.20388756692409515,-0.5003073215484619,-0.09996038675308228,0.10460968315601349,-0.25027263164520264,-0.10253026336431503,0.5603741407394409,-0.6657100319862366,-9.989713668823242,-0.2466307282447815,2.9507031440734863,0.483865350484848,-0.12414297461509705,0.4205400347709656,9.780210494995117,0.7634934782981873,0.02559024654328823
1.66,-0.15640677511692047,-0.10045955330133438,-0.12738636136054993,-0.5641196370124817,0.3250739872455597,0.1145378053188324,-0.04846848174929619,-0.18501900136470795,0.9085436463356018,-0.4544394016265869,-0.15640677511692047,-0.10045955330133438,-0.12738636136054993,-0.5641196370124817,0.3250739872455597,0.1145378053188324,-0.04846848174929619,-0.18501900136470795,0.9085436463356018,-0.4544394016265869,0.24564841389656067,-0.3460586369037628,-1.1141268014907837,0.9181140065193176,-0.3725239634513855,-0.27037227153778076,-1.351007103919983,2.432161331176758,-5.801140308380127,-9.582215309143066,-0.1886613368988037,0.015417614951729774,-0.20582516491413116,-0.544376790523529,-0.4092012643814087,-0.012599945068359375,-0.0960230827331543,-0.22120213508605957,0.3640780448913574,-0.4650937020778656,-4.70986270904541,-0.37630903720855713,1.6417850255966187,0.20484483242034912,-0.21567365527153015,0.27900680899620056,9.784788131713867,0.7027714848518372,-0.011478330008685589
1.68,-0.15501399338245392,-0.09542649239301682,-0.14686506986618042,-0.5522527694702148,0.31314608454704285,0.10606154799461365,-0.06315337866544724,-0.16462068259716034,0.767479419708252,-0.5062255263328552,-0.15501399338245392,-0.09542649239301682,-0.14686506986618042,-0.5522527694702148,0.31314608454704285,0.10606154799461365,-0.06315337866544724,-0.16462068259716034,0.767479419708252,-0.5062255263328552,-0.10796588659286499,0.7265675663948059,-1.4472111463546753,0.29193922877311707,-0.6564645767211914,-0.5744702219963074,-0.2286028414964676,-0.5737864971160889,-7.673803806304932,1.535292148590088,-0.2862916886806488,0.23563678562641144,-0.08595454692840576,-0.5558112859725952,-0.3368913531303406,-0.33568358421325684,0.1547800600528717,-0.4439689517021179,0.1973400115966797,-0.26169100403785706,-3.9229862689971924,0.6085325479507446,2.9559543132781982,0.12188822776079178,0.6196160912513733,0.3288257420063019,9.788947105407715,0.6419612765312195,0.022351985797286034
1.7,-0.1570475697517395,-0.062381014227867126,-0.14329631626605988,-0.551726758480072,0.29586905241012573,0.07782688736915588,-0.049042992293834686,-0.2305086851119995,0.6113524436950684,-0.4328116476535797,-0.1570475697517395,-0.062381014227867126,-0.14329631626605988,-0.551726758480072,0.29586905241012573,0.07782688736915588,-0.049042992293834686,-0.2305086851119995,0.6113524436950684,-0.4328116476535797,-0.1776401549577713,2.2329370975494385,1.6155956983566284,-0.2958824932575226,-1.2749184370040894,-2.4819793701171875,1.4507429599761963,-5.336253643035889,-5.3046417236328125,-7.564223766326904,-0.25484246015548706,-0.03281085193157196,-0.022977743297815323,-1.2067348957061768,-0.1121264100074768,-0.20223122835159302,0.21572405099868774,-0.46549084782600403,0.27683311700820923,-0.01649874448776245,-23.097055435180664,-5.456357479095459,-7.223437786102295,0.712917149066925,1.760467767715454,-0.010266548953950405,9.787572860717773,0.6137654185295105,0.250618577003479
1.72,-0.17394740879535675,-0.04481945186853409,-0.10677345097064972,-0.6371476054191589,0.2682678997516632,0.0417475551366806,-0.03068757802248001,-0.26421672105789185,0.5560885071754456,-0.4260837733745575,-0.17394740879535675,-0.04481945186853409,-0.10677345097064972,-0.6371476054191589,0.2682678997516632,0.0417475551366806,-0.03068757802248001,-0.26421672105789185,0.5560885071754456,-0.4260837733745575,-1.2374682426452637,0.19344671070575714,1.9903123378753662,-7.459136486053467,2.6523261070251465,-2.03829026222229,0.8771093487739563,-0.6127018332481384,-2.517538070678711,1.2260456085205078,-0.3641350567340851,-0.0229962021112442,-0.049138713628053665,-1.1176294088363647,-0.27547043561935425,-0.2656186819076538,0.22782555222511292,-0.4846091568470001,0.34254956245422363,-0.06949862837791443,-14.41055965423584,0.9675216674804688,-1.6983968019485474,0.79258793592453,0.4455306828022003,-0.4842941462993622,9.779059410095215,0.6531403660774231,0.42368873953819275
1.74,-0.2016267031431198,-0.03893639147281647,-0.07838835567235947,-0.7730534076690674,0.1537807583808899,-0.0018617133609950542,-0.009768393822014332,-0.3360799551010132,0.49908095598220825,-0.3985249400138855,-0.2016267031431198,-0.03893639147281647,-0.07838835567235947,-0.7730534076690674,0.1537807583808899,-0.0018617133609950542,-0.009768393822014332,-0.3360799551010132,0.49908095598220825,-0.3985249400138855,-1.486424446105957,0.27186232805252075,0.8100955486297607,-5.572838306427002,-11.208395957946777,-2.0708084106445312,1.216286540031433,-4.38593864440918,-2.7248029708862305,1.3148853778839111,-0.37522417306900024,-0.045814260840415955,-0.0035426951944828033,-1.1916301250457764,0.03764212131500244,-0.19409286975860596,0.2301492691040039,-0.439254492521286,0.37901613116264343,-0.14727246761322021,-4.70932674407959,0.16238662600517273,-1.0534430742263794,0.40935832262039185,0.7505525946617126,-0.43254613876342773,9.766387939453125,0.7534568309783936,0.5348465442657471
1.76,-0.2309119999408722,-0.034558895975351334,-0.06161574646830559,-0.8835771679878235,0.07462063431739807,-0.03559553995728493,0.015390098094940186,-0.3977358937263489,0.45661982893943787,-0.37815603613853455,-0.2309119999408722,-0.034558895975351334,-0.06161574646830559,-0.8835771679878235,0.07462063431739807,-0.03559553995728493,0.015390098094940186,-0.3977358937263489,0.45661982893943787,-0.37815603613853455,-1.2241438627243042,0.07145941257476807,1.1911381483078003,-5.602073669433594,-1.9751238822937012,-1.3749641180038452,1.199142336845398,-1.8299163579940796,-1.5939643383026123,0.5810667872428894,-0.3358409106731415,-0.059572890400886536,0.04471605643630028,-1.2716872692108154,0.09284770488739014,-0.20037370920181274,0.18128591775894165,-0.4363742172718048,0.404208242893219,-0.1976843774318695,-3.586162567138672,-0.49663957953453064,-0.7424415349960327,-0.02665615640580654,0.6875410079956055,-0.4258277118206024,9.750436782836914,0.8401898145675659,0.6776097416877747
1.78,-0.24924466013908386,-0.03582789748907089,-0.02914026379585266,-0.9915710091590881,0.07259076833724976,-0.05921220779418945,0.03639966994524002,-0.41979077458381653,0.43450140953063965,-0.37863466143608093,-0.24924466013908386,-0.03582789748907089,-0.02914026379585266,-0.9915710091590881,0.07259076833724976,-0.05921220779418945,0.03639966994524002,-0.41979077458381653,0.43450140953063965,-0.37863466143608093,-0.6740285158157349,-0.15726621448993683,1.9818129539489746,-5.216853618621826,0.7724953889846802,-1.0616217851638794,0.9137523770332336,-0.6787256002426147,-0.733328640460968,-0.5329585671424866,-0.18005965650081635,-0.12696240842342377,0.023342367261648178,-1.29451322555542,0.1652488112449646,-0.2509308457374573,0.18677514791488647,-0.42680975794792175,0.38727331161499023,-0.209938645362854,-3.374417304992676,-0.41550323367118835,-1.0542526245117188,-0.32229939103126526,0.5184158086776733,-0.49498841166496277,9.733511924743652,0.9248406887054443,0.7996974587440491
1.8,-0.2493705004453659,-0.04577360674738884,0.001620493596419692,-1.081676959991455,0.11153794080018997,-0.08269713073968887,0.048913002014160156,-0.4280194342136383,0.4266994595527649,-0.3856463134288788,-0.2493705004453659,-0.04577360674738884,0.001620493596419692,-1.081676959991455,0.11153794080018997,-0.08269713073968887,0.048913002014160156,-0.4280194342136383,0.4266994595527649,-0.3856463134288788,0.42752933502197266,-0.6505396962165833,1.1005927324295044,-3.9888250827789307,2.4344418048858643,-1.2756640911102295,0.5030675530433655,-0.31635454297065735,-0.24988064169883728,-0.19866417348384857,-0.1552625149488449,-0.10821427404880524,0.06037116423249245,-1.3274359703063965,0.4099408984184265,-0.22239959239959717,0.1424102634191513,-0.46009930968284607,0.42697638273239136,-0.23145082592964172,-8.047579765319824,-2.00262188911438,-2.599571943283081,-0.4477832019329071,0.21382364630699158,-0.8782758116722107,9.714176177978516,1.0523855686187744,0.8737082481384277
1.82,-0.23955170810222626,-0.057095933705568314,0.02418397180736065,-1.1543575525283813,0.23849961161613464,-0.1041264757514,0.05727123096585274,-0.4357551038265228,0.42801451683044434,-0.39381587505340576,-0.23955170810222626,-0.057095933705568314,0.02418397180736065,-1.1543575525283813,0.23849961161613464,-0.1041264757514,0.05727123096585274,-0.4357551038265228,0.42801451683044434,-0.39381587505340576,0.5552496910095215,-0.4918285012245178,1.2660235166549683,-3.284205675125122,8.140717506408691,-0.9063634872436523,0.3251405358314514,-0.4332188069820404,0.3442983031272888,-0.5768094062805176,-0.06299221515655518,-0.1650199443101883,0.04418937489390373,-1.2940309047698975,0.4875115156173706,-0.24373537302017212,0.0698232501745224,-0.4875267744064331,0.47520357370376587,-0.3257586658000946,-7.7142205238342285,-1.7979871034622192,-2.9692130088806152,-0.46972236037254333,0.13168661296367645,-0.7529864311218262,9.69278621673584,1.2008681297302246,0.9186491966247559
1.84,-0.2225356251001358,-0.07136761397123337,0.04107346013188362,-1.2031948566436768,0.3735113739967346,-0.12112773209810257,0.05929490923881531,-0.44708454608917236,0.44133344292640686,-0.40913841128349304,-0.2225356251001358,-0.07136761397123337,0.04107346013188362,-1.2031948566436768,0.3735113739967346,-0.12112773209810257,0.05929490923881531,-0.44708454608917236,0.44133344292640686,-0.40913841128349304,1.0815831422805786,-0.8694321513175964,0.5073477029800415,-1.7921779155731201,5.566447734832764,-0.7980858087539673,-0.08006270229816437,-0.640021562576294,0.9715456366539001,-0.9451371431350708,-0.08975303173065186,-0.1215289980173111,0.10902392119169235,-1.2528743743896484,0.6410578489303589,-0.15580135583877563,0.07317414879798889,-0.46660178899765015,0.531883955001831,-0.26183295249938965,-6.899235248565674,-1.4214224815368652,-2.9452884197235107,-0.5973899364471436,-0.12129925936460495,-0.8606372475624084,9.672581672668457,1.3446203470230103,0.932345449924469
1.86,-0.20392784476280212,-0.08295734971761703,0.060893017798662186,-1.2263538837432861,0.5019508004188538,-0.13117851316928864,0.05622405931353569,-0.457019567489624,0.4684126377105713,-0.4321950376033783,-0.20392784476280212,-0.08295734971761703,0.060893017798662186,-1.2263538837432861,0.5019508004188538,-0.13117851316928864,0.05622405931353569,-0.457019567489624,0.4684126377105713,-0.4321950376033783,0.8037115335464478,-0.3561743497848511,1.4765419960021973,-0.6102672219276428,6.649769306182861,-0.29256105422973633,-0.2118634283542633,-0.3797323703765869,1.6028307676315308,-1.2990520000457764,0.017950773239135742,0.003372207283973694,0.14138369262218475,-1.1019753217697144,0.783165454864502,-0.06365883350372314,0.11795716732740402,-0.4693584144115448,0.5732215642929077,-0.24186640977859497,-7.620630741119385,-2.020785093307495,-3.045476198196411,-0.4110562205314636,-0.17003051936626434,-0.6183063983917236,9.654330253601074,1.4798717498779297,0.9165053963661194
1.88,-0.18325786292552948,-0.07956648617982864,0.09627147018909454,-1.2110570669174194,0.6409578919410706,-0.1343573033809662,0.055279381573200226,-0.4638392925262451,0.5049678087234497,-0.461587518453598,-0.18325786292552948,-0.07956648617982864,0.09627147018909454,-1.2110570669174194,0.6409578919410706,-0.1343573033809662,0.055279381573200226,-0.4638392925262451,0.5049678087234497,-0.461587518453598,1.1859660148620605,0.5376887321472168,1.870863914489746,1.8654675483703613,6.843503475189209,0.016686277464032173,0.06185588613152504,-0.3793164789676666,2.0341408252716064,-1.602174997329712,-0.06810173392295837,-0.024119660258293152,0.1350182145833969,-0.976518452167511,0.8828755617141724,0.04834824800491333,0.10731346905231476,-0.4746299684047699,0.643978476524353,-0.31381773948669434,-8.144689559936523,-2.7156286239624023,-3.002284049987793,-0.4476589262485504,0.03420764207839966,-0.4918941259384155,9.638346672058105,1.5826719999313354,0.9129732847213745
1.9,-0.16559922695159912,-0.0709875077009201,0.12292957305908203,-1.15781831741333,0.7658653259277344,-0.12453820556402206,0.054387740790843964,-0.4716620147228241,0.5517968535423279,-0.49625614285469055,-0.16559922695159912,-0.0709875077009201,0.12292957305908203,-1.15781831741333,0.7658653259277344,-0.12453820556402206,0.054387740790843964,-0.4716620147228241,0.5517968535423279,-0.49625614285469055,0.6596682667732239,0.35052651166915894,0.8917015790939331,3.297590732574463,5.654704570770264,0.8015404343605042,-0.11165601015090942,-0.3924524784088135,2.5416462421417236,-1.8197072744369507,-0.03561359643936157,-0.022748485207557678,0.08414971083402634,-0.7790151834487915,0.9023186564445496,0.0262736976146698,0.12794291973114014,-0.477232962846756,0.6554839015007019,-0.421139657497406,-7.842849254608154,-2.487778663635254,-3.025346279144287,-0.4586181044578552,-0.05618024989962578,0.003606452140957117,9.631287574768066,1.6190783977508545,0.9235725998878479
1.92,-0.14941218495368958,-0.06451661139726639,0.1250264197587967,-1.0690689086914062,0.8433669805526733,-0.11037473380565643,0.05360227823257446,-0.47759953141212463,0.6000767350196838,-0.5325554609298706,-0.14941218495368958,-0.06451661139726639,0.1250264197587967,-1.0690689086914062,0.8433669805526733,-0.11037473380565643,0.05360227823257446,-0.47759953141212463,0.6000767350196838,-0.5325554609298706,0.8526437282562256,0.3072219789028168,-0.571646511554718,5.3063154220581055,2.7721564769744873,0.656223475933075,0.01217355765402317,-0.2069854736328125,2.315371036529541,-1.7957011461257935,-0.024020224809646606,0.09371711313724518,0.07924719899892807,-0.7336167693138123,0.7904795408248901,-0.02117934823036194,0.1544399857521057,-0.49386996030807495,0.6739860773086548,-0.46016019582748413,-8.133981704711914,-2.702014923095703,-3.4862146377563477,-0.3117339313030243,-0.036102328449487686,0.027054140344262123,9.632645606994629,1.6097787618637085,0.925664484500885
1.94,-0.133081316947937,-0.05001471936702728,0.1128460094332695,-0.9683475494384766,0.8366280198097229,-0.10101164877414703,0.05748111009597778,-0.47874021530151367,0.6434199810028076,-0.5688867568969727,-0.133081316947937,-0.05001471936702728,0.1128460094332695,-0.9683475494384766,0.8366280198097229,-0.10101164877414703,0.05748111009597778,-0.47874021530151367,0.6434199810028076,-0.5688867568969727,0.7740525007247925,1.0330798625946045,-0.628835141658783,4.654128551483154,-2.025573253631592,0.33203428983688354,0.3100675046443939,0.04824398458003998,2.07141375541687,-1.834950566291809,-0.1453247368335724,-0.04844503104686737,0.05580159276723862,-0.525841236114502,0.5175153613090515,0.04553946852684021,0.07664673030376434,-0.38676533102989197,0.7578325867652893,-0.3783876299858093,-7.8274712562561035,-2.282686233520508,-3.9536538124084473,0.03528287261724472,0.11829406768083572,-0.03325781971216202,9.632089614868164,1.6067249774932861,0.9366900324821472
1.96,-0.1253984570503235,-0.040577780455350876,0.090701162815094,-0.8611128330230713,0.700318455696106,-0.08873475342988968,0.05803325027227402,-0.4624587893486023,0.6861003041267395,-0.6057164669036865,-0.1253984570503235,-0.040577780455350876,0.090701162815094,-0.8611128330230713,0.700318455696106,-0.08873475342988968,0.05803325027227402,-0.4624587893486023,0.6861003041267395,-0.6057164669036865,0.07694020867347717,-0.009743043221533298,-1.2909462451934814,6.055556774139404,-8.964536666870117,0.8049482703208923,-0.2267809808254242,1.1750563383102417,2.286264419555664,-1.9172956943511963,-0.4210054278373718,-0.02771918475627899,0.20876817405223846,-0.5047352313995361,0.5382145047187805,0.2087765634059906,0.036124490201473236,-0.2743411660194397,0.8282878994941711,-0.24230706691741943,-11.356452941894531,-2.056055784225464,-5.870649337768555,0.3765808939933777,-0.31624695658683777,0.3646154999732971,9.638736724853516,1.5818867683410645,0.9102118015289307
1.98,-0.14360037446022034,-0.03846077248454094,0.10481715202331543,-0.7553585171699524,0.5931454300880432,-0.06211186200380325,0.051811277866363525,-0.414326936006546,0.7356048226356506,-0.6458406448364258,-0.14360037446022034,-0.03846077248454094,0.10481715202331543,-0.7553585171699524,0.5931454300880432,-0.06211186200380325,0.051811277866363525,-0.414326936006546,0.7356048226356506,-0.6458406448364258,-1.5617601871490479,0.14406836032867432,2.5413269996643066,4.735846519470215,-2.9477009773254395,1.641973614692688,-0.46397271752357483,2.8340702056884766,2.820216178894043,-2.3218743801116943,-0.35267606377601624,-0.07924960553646088,0.1546061784029007,-0.5517531633377075,0.48743778467178345,0.1670292764902115,0.01571081578731537,-0.24480494856834412,0.8504764437675476,-0.30964523553848267,-10.614910125732422,-1.7395304441452026,-6.029258728027344,1.2443960905075073,-0.6343502998352051,1.05545973777771,9.6690034866333,1.4576486349105835,0.7885022163391113
2.0,-0.1740536093711853,-0.03641415759921074,0.14082616567611694,-0.7197726964950562,0.4218991994857788,-0.03852148354053497,0.046243831515312195,-0.34844034910202026,0.7811477184295654,-0.6769886612892151,-0.1740536093711853,-0.03641415759921074,0.14082616567611694,-0.7197726964950562,0.4218991994857788,-0.03852148354053497,0.046243831515312195,-0.34844034910202026,0.7811477184295654,-0.6769886612892151,-1.6442930698394775,0.4849526882171631,0.9794433116912842,-2.414177656173706,0.10870607197284698,0.847889244556427,0.29867205023765564,3.4041895866394043,1.9835360050201416,-1.3540204763412476,-0.29818373918533325,-0.18761135637760162,0.23010888695716858,-0.6768231391906738,0.17748993635177612,0.3419703543186188,-0.11787459999322891,-0.31011855602264404,1.0424609184265137,-0.0500338077545166,-63.0151481628418,-0.22611193358898163,23.514846801757812,1.1729546785354614,-0.6231441497802734,0.5796991586685181,9.701316833496094,1.3167363405227661,0.621893584728241
2.02,-0.19652004539966583,-0.035812605172395706,0.14871016144752502,-0.7590713500976562,0.4513234496116638,-0.009581562131643295,0.037651512771844864,-0.3181655704975128,0.8418380618095398,-0.6553164720535278,-0.19652004539966583,-0.035812605172395706,0.14871016144752502,-0.7590713500976562,0.4513234496116638,-0.009581562131643295,0.037651512771844864,-0.3181655704975128,0.8418380618095398,-0.6553164720535278,-0.7373049855232239,-0.3978756368160248,0.24169063568115234,-1.2214092016220093,0.9136594533920288,1.948814868927002,-1.0481582880020142,0.3398572504520416,3.918828248977661,1.4296046495437622,-0.07935452461242676,-0.20264221727848053,0.16720238327980042,-0.547641396522522,0.23494625091552734,0.12604396045207977,-0.13618236780166626,-0.3255346715450287,0.9821349382400513,-0.1239919364452362,-16.678192138671875,-0.9615927934646606,1.2642208337783813,0.17372001707553864,-0.6141387820243835,0.43271979689598083,9.716870307922363,1.2361605167388916,0.5389281511306763
2.04,-0.19011494517326355,-0.04648708179593086,0.15094111859798431,-0.7620260715484619,0.45999741554260254,0.013331023044884205,0.015726016834378242,-0.32005003094673157,0.9026354551315308,-0.6033228039741516,-0.19011494517326355,-0.04648708179593086,0.15094111859798431,-0.7620260715484619,0.45999741554260254,0.013331023044884205,0.015726016834378242,-0.32005003094673157,0.9026354551315308,-0.6033228039741516,1.0040817260742188,-0.6295604109764099,-0.0073472363874316216,0.6634477972984314,0.042446088045835495,0.6346542239189148,-1.1022924184799194,-0.3181699514389038,2.34804105758667,3.366638422012329,-0.08357119560241699,-0.17980612814426422,0.08986743539571762,-0.5952430963516235,0.12907743453979492,0.13863088190555573,-0.11907051503658295,-0.320936918258667,1.0172638893127441,-0.06223791837692261,-15.430157661437988,-2.8137197494506836,1.5896117687225342,0.004692227579653263,-0.6298035979270935,-0.29983168840408325,9.723732948303223,1.2310866117477417,0.41175198554992676
2.06,-0.17027586698532104,-0.06020449846982956,0.14515003561973572,-0.7413486838340759,0.45511889457702637,0.02886580489575863,-0.005120002664625645,-0.3224492073059082,0.9446166753768921,-0.5286356210708618,-0.17027586698532104,-0.06020449846982956,0.14515003561973572,-0.7413486838340759,0.45511889457702637,0.02886580489575863,-0.005120002664625645,-0.3224492073059082,0.9446166753768921,-0.5286356210708618,0.9708721041679382,-0.7516496777534485,-0.8948608636856079,1.2485136985778809,-0.3539767265319824,0.859360933303833,-0.9799272418022156,0.027599085122346878,1.9284995794296265,3.8657093048095703,-0.06749415397644043,-0.24056632816791534,0.0027979686856269836,-0.6169007420539856,-0.6824915409088135,0.12424899637699127,-0.16433803737163544,-0.30506452918052673,1.0006651878356934,0.4446723461151123,-9.453692436218262,-1.738765835762024,0.4241013526916504,-0.05680541321635246,-0.5821387767791748,-0.0854724645614624,9.723639488220215,1.2653820514678955,0.2928291857242584
2.08,-0.15272098779678345,-0.07933907955884933,0.11257480829954147,-0.7190572023391724,0.4363540709018707,0.044028885662555695,-0.02559507265686989,-0.3206294775009155,0.9757602214813232,-0.44885265827178955,-0.15272098779678345,-0.07933907955884933,0.11257480829954147,-0.7190572023391724,0.4363540709018707,0.044028885662555695,-0.02559507265686989,-0.3206294775009155,0.9757602214813232,-0.44885265827178955,0.7792543172836304,-1.1981401443481445,-2.085357189178467,1.1362155675888062,-5.283669948577881,0.6578115820884705,-1.0860925912857056,0.18428725004196167,1.2710784673690796,4.0733642578125,-0.06011146306991577,-0.23477406799793243,-0.08912606537342072,-0.5792499780654907,-0.21844452619552612,0.12256325781345367,-0.11815927922725677,-0.3264946937561035,0.9258019328117371,0.20612794160842896,-5.008288383483887,-0.7922258973121643,-1.765140414237976,0.04032931104302406,-0.6506505012512207,-0.06633790582418442,9.72503662109375,1.2768151760101318,0.1717735230922699
2.1,-0.13607476651668549,-0.10146623849868774,0.044303979724645615,-0.697959303855896,0.4291311204433441,0.053360842168331146,-0.04319208860397339,-0.3151247501373291,0.9909000396728516,-0.3704972565174103,-0.13607476651668549,-0.10146623849868774,0.044303979724645615,-0.697959303855896,0.4291311204433441,0.053360842168331146,-0.04319208860397339,-0.3151247501373291,0.9909000396728516,-0.3704972565174103,0.7673637866973877,-1.0496028661727905,-4.057132244110107,1.2460660934448242,-0.7491452097892761,0.35947486758232117,-0.7303745150566101,0.25150442123413086,0.3307132124900818,3.677239418029785,-0.25481492280960083,-0.21005494892597198,-0.16135218739509583,-0.5701349973678589,-0.1849082112312317,0.3155916929244995,-0.09941063821315765,-0.24779273569583893,0.8592404127120972,0.15626978874206543,-10.302718162536621,-2.473193407058716,0.3139829635620117,0.27489787340164185,-0.5440253019332886,0.038278017193078995,9.725244522094727,1.2859385013580322,0.04571717604994774
2.12,-0.13615576922893524,-0.11964241415262222,-0.03644895181059837,-0.6765451431274414,0.40678727626800537,0.07117186486721039,-0.052692264318466187,-0.2969155013561249,0.9932904839515686,-0.2995697259902954,-0.13615576922893524,-0.11964241415262222,-0.03644895181059837,-0.6765451431274414,0.40678727626800537,0.07117186486721039,-0.052692264318466187,-0.2969155013561249,0.9932904839515686,-0.2995697259902954,-0.5309154391288757,-0.8313218355178833,-3.9684720039367676,1.048232078552246,-1.3561198711395264,1.2299163341522217,-0.28400933742523193,1.4548377990722656,-0.15459196269512177,3.450918197631836,-0.1990395486354828,-0.10476135462522507,-0.057632625102996826,-0.5010520219802856,0.12240242958068848,0.28840264678001404,-0.02528706192970276,-0.24667277932167053,0.9933208227157593,-0.19430813193321228,-11.255819320678711,-3.0328292846679688,-0.4690333306789398,0.660896897315979,-0.4517971873283386,0.8999584913253784,9.736946105957031,1.1935056447982788,-0.05937282368540764
2.14,-0.14383770525455475,-0.12414727360010147,-0.07442646473646164,-0.6437979340553284,0.38040611147880554,0.09522975236177444,-0.051078882068395615,-0.26995792984962463,0.99021977186203,-0.24209287762641907,-0.14383770525455475,-0.12414727360010147,-0.07442646473646164,-0.6437979340553284,0.38040611147880554,0.09522975236177444,-0.051078882068395615,-0.26995792984962463,0.99021977186203,-0.24209287762641907,-0.24667592346668243,0.23921388387680054,-0.22161702811717987,2.0394699573516846,-1.062787413597107,1.20853853225708,0.2946782112121582,1.0238255262374878,-0.018525615334510803,2.260849952697754,-0.12134014070034027,-0.12599581480026245,-0.10850255936384201,-0.46167808771133423,0.25666162371635437,0.3485461175441742,-0.11325773596763611,-0.1441439986228943,1.0686886310577393,-0.17120781540870667,-3.6998088359832764,-0.26168113946914673,1.439534306526184,0.7777466177940369,-0.05480685830116272,1.0009170770645142,9.757975578308105,1.000653862953186,-0.1292506456375122
2.16,-0.1468329280614853,-0.12124337255954742,-0.07857637107372284,-0.6026703119277954,0.36805394291877747,0.12115924805402756,-0.04973452538251877,-0.24102184176445007,1.0020259618759155,-0.20548515021800995,-0.1468329280614853,-0.12124337255954742,-0.07857637107372284,-0.6026703119277954,0.36805394291877747,0.12115924805402756,-0.04973452538251877,-0.24102184176445007,1.0020259618759155,-0.20548515021800995,-0.325315922498703,0.29355588555336,0.24098478257656097,1.3574237823486328,-0.6834059357643127,1.291276454925537,0.10375449806451797,2.043653964996338,1.0488322973251343,1.5761278867721558,-0.08890381455421448,-0.17536960542201996,-0.06620601564645767,-0.38647645711898804,0.30850762128829956,0.270782470703125,-0.25853317975997925,-0.16466179490089417,0.9421204924583435,-0.31419646739959717,-17.335065841674805,1.990695595741272,6.779885292053223,0.6618910431861877,0.014037453569471836,0.9425743818283081,9.775633811950684,0.8044832348823547,-0.16090330481529236
2.18,-0.14450542628765106,-0.12052592635154724,-0.07545969635248184,-0.5723069906234741,0.3526199758052826,0.13780094683170319,-0.06311796605587006,-0.21182721853256226,1.0040900707244873,-0.23610463738441467,-0.14450542628765106,-0.12052592635154724,-0.07545969635248184,-0.5723069906234741,0.3526199758052826,0.13780094683170319,-0.06311796605587006,-0.21182721853256226,1.0040900707244873,-0.23610463738441467,0.3059307932853699,-0.11274456977844238,0.1253676563501358,1.6473358869552612,-0.7903092503547668,0.6345531344413757,-1.1879005432128906,1.043582558631897,-0.8224510550498962,-3.335050106048584,-0.1338011920452118,-0.18280021846294403,-0.24823090434074402,-0.5632426738739014,-0.9545750617980957,0.06263929605484009,-0.22757914662361145,-0.11708864569664001,0.5662517547607422,-0.7347261905670166,-8.733940124511719,-1.041595220565796,2.912057638168335,0.24364794790744781,-0.17875052988529205,0.5421616435050964,9.785094261169434,0.6754469275474548,-0.17833420634269714
2.2,-0.14084360003471375,-0.1255926787853241,-0.10709522664546967,-0.5538668036460876,0.3336729109287262,0.13676252961158752,-0.08471924811601639,-0.18305303156375885,0.9292664527893066,-0.4337717890739441,-0.14084360003471375,-0.1255926787853241,-0.10709522664546967,-0.5538668036460876,0.3336729109287262,0.13676252961158752,-0.08471924811601639,-0.18305303156375885,0.9292664527893066,-0.4337717890739441,-0.043406084179878235,-0.3403026759624481,-3.6165261268615723,0.2378249615430832,0.09313493967056274,-0.522579550743103,-0.9575173258781433,1.8068718910217285,-6.184284210205078,-13.932393074035645,-0.208179771900177,0.08753395825624466,-0.14561708271503448,-0.5615276098251343,-0.5334408283233643,0.03362187743186951,0.03721606731414795,-0.2257845401763916,0.1553635597229004,-0.41267135739326477,-3.9677600860595703,0.4065145254135132,1.6567460298538208,0.3951382637023926,-0.09593965113162994,0.39689478278160095,9.790313720703125,0.5852659344673157,-0.2081393599510193
2.22,-0.14688919484615326,-0.11417751014232635,-0.1488969326019287,-0.5500600337982178,0.3242659866809845,0.12268955260515213,-0.08319330215454102,-0.16599901020526886,0.7510358691215515,-0.4955459535121918,-0.14688919484615326,-0.11417751014232635,-0.1488969326019287,-0.5500600337982178,0.3242659866809845,0.12268955260515213,-0.08319330215454102,-0.16599901020526886,0.7510358691215515,-0.4955459535121918,-0.5565152764320374,1.3666424751281738,-0.49792659282684326,0.1822337806224823,-0.8607428669929504,-0.7316887378692627,0.9454691410064697,-0.5480954051017761,-10.786975860595703,3.592116117477417,-0.25513383746147156,0.2634273171424866,-0.23441866040229797,-0.6197509169578552,-0.4188281297683716,-0.3714134097099304,0.22063478827476501,-0.46161580085754395,0.1884872317314148,-0.0598139762878418,-3.4754910469055176,0.3351721167564392,3.0912866592407227,0.5656251311302185,0.9851428866386414,0.6092581748962402,9.796799659729004,0.4899344742298126,-0.1370742917060852
2.24,-0.15239191055297852,-0.07485166937112808,-0.16746409237384796,-0.5547678470611572,0.30568790435791016,0.09062125533819199,-0.05164718255400658,-0.23791633546352386,0.5745270252227783,-0.3881019353866577,-0.15239191055297852,-0.07485166937112808,-0.16746409237384796,-0.5547678470611572,0.30568790435791016,0.09062125533819199,-0.05164718255400658,-0.23791633546352386,0.5745270252227783,-0.3881019353866577,-0.19433623552322388,2.221228837966919,-1.53254234790802,-0.8126809000968933,-1.3345435857772827,-2.9736533164978027,2.0933454036712646,-5.647276878356934,-4.145941734313965,-7.019787311553955,-0.2806687653064728,-0.0351799875497818,-0.06999602913856506,-1.201928734779358,-0.3916998505592346,-0.2111479640007019,0.2022986114025116,-0.4396553039550781,0.28197795152664185,0.08791989088058472,-13.62089729309082,-3.9540605545043945,-2.1377484798431396,1.0032504796981812,1.8036750555038452,-0.14962276816368103,9.799413681030273,0.43137818574905396,0.14661578834056854
2.26,-0.17422813177108765,-0.05708612501621246,-0.16679610311985016,-0.6467800140380859,0.2652583718299866,0.04853423684835434,-0.024592459201812744,-0.28133493661880493,0.5169242024421692,-0.40481534600257874,-0.17422813177108765,-0.05708612501621246,-0.16679610311985016,-0.6467800140380859,0.2652583718299866,0.04853423684835434,-0.024592459201812744,-0.28133493661880493,0.5169242024421692,-0.40481534600257874,-1.280030608177185,0.13672612607479095,1.8235013484954834,-7.895397663116455,-7.53530740737915,-1.995685338973999,0.9852330684661865,-0.08642295747995377,-2.4562957286834717,0.7937934994697571,-0.4188128709793091,-0.03827400505542755,-0.08925755321979523,-1.1682687997817993,-0.41706353425979614,-0.18020623922348022,0.20638597011566162,-0.4435306191444397,0.3742126524448395,-0.006772041320800781,-11.068380355834961,0.747310221195221,-3.817391872406006,0.9286507368087769,0.48559898138046265,-0.34039267897605896,9.793353080749512,0.44788771867752075,0.35459449887275696
2.28,-0.20918482542037964,-0.05274178460240364,-0.13377918303012848,-0.7846746444702148,0.1778620183467865,0.011537694372236729,-0.002817131346091628,-0.33512428402900696,0.4705810844898224,-0.3847103416919708,-0.20918482542037964,-0.05274178460240364,-0.13377918303012848,-0.7846746444702148,0.1778620183467865,0.011537694372236729,-0.002817131346091628,-0.33512428402900696,0.4705810844898224,-0.3847103416919708,-1.9947805404663086,0.26271599531173706,1.1544877290725708,-5.900965213775635,-3.5437207221984863,-1.586395263671875,1.1882396936416626,-3.2820348739624023,-1.8830136060714722,0.9431807994842529,-0.4535341262817383,-0.028766974806785583,-0.02085505798459053,-1.2340086698532104,-0.04733377695083618,-0.15286529064178467,0.2081243097782135,-0.4773986041545868,0.3774598240852356,-0.07944580912590027,-10.947522163391113,2.4000041484832764,1.2372444868087769,0.5749115943908691,0.6862618327140808,-0.27853187918663025,9.7852144241333,0.5193692445755005,0.4646870791912079
2.3,-0.2460881769657135,-0.047725096344947815,-0.10364482551813126,-0.9030239582061768,0.06281965970993042,-0.017132824286818504,0.01984455995261669,-0.39592087268829346,0.4418802559375763,-0.3717309236526489,-0.2460881769657135,-0.047725096344947815,-0.10364482551813126,-0.9030239582061768,0.06281965970993042,-0.017132824286818504,0.01984455995261669,-0.39592087268829346,0.4418802559375763,-0.3717309236526489,-1.6275343894958496,0.21840685606002808,2.0295841693878174,-5.955576419830322,-5.182824611663818,-1.2851828336715698,1.058560848236084,-2.765982151031494,-1.1134543418884277,0.31642264127731323,-0.3924621343612671,-0.04431767761707306,0.03264899179339409,-1.2998735904693604,0.0605463981628418,-0.18046218156814575,0.20738792419433594,-0.4402686655521393,0.3949570655822754,-0.2285548746585846,-4.8068718910217285,-0.7275263667106628,-1.493299961090088,0.2205340564250946,0.6465638875961304,-0.3830092251300812,9.773786544799805,0.5926761031150818,0.5982728600502014
2.32,-0.2705841362476349,-0.04455965757369995,-0.05743939056992531,-1.0160468816757202,0.03576909750699997,-0.04119411110877991,0.0401163250207901,-0.42864856123924255,0.4249204099178314,-0.3773902356624603,-0.2705841362476349,-0.04455965757369995,-0.05743939056992531,-1.0160468816757202,0.03576909750699997,-0.04119411110877991,0.0401163250207901,-0.42864856123924255,0.4249204099178314,-0.3773902356624603,-0.9230642318725586,0.0959346815943718,2.5016930103302,-5.343000411987305,0.8361469507217407,-1.1317094564437866,0.9724348187446594,-0.7170926332473755,-0.6113387942314148,-0.8507317900657654,-0.2150334119796753,-0.1182599812746048,0.028039973229169846,-1.2583274841308594,0.13015669584274292,-0.3102062940597534,0.1958969086408615,-0.4414675235748291,0.37211471796035767,-0.20168441534042358,-3.0755085945129395,-0.7128788828849792,-0.66716468334198,-0.10680242627859116,0.5532693862915039,-0.47349321842193604,9.76068115234375,0.6756645441055298,0.7132251262664795
2.34,-0.2721590995788574,-0.05075007304549217,-0.01626221276819706,-1.0980925559997559,0.0748247504234314,-0.06924263387918472,0.05412930250167847,-0.43513381481170654,0.4156509041786194,-0.39032861590385437,-0.2721590995788574,-0.05075007304549217,-0.01626221276819706,-1.0980925559997559,0.0748247504234314,-0.06924263387918472,0.05412930250167847,-0.43513381481170654,0.4156509041786194,-0.39032861590385437,0.4708440899848938,-0.533139705657959,1.7383463382720947,-3.1602673530578613,2.424159049987793,-1.6003504991531372,0.5144997835159302,-0.1605842113494873,-0.40151020884513855,-0.27843573689460754,-0.14699135720729828,-0.09473459422588348,0.07368515431880951,-1.313399076461792,0.30211853981018066,-0.30365896224975586,0.18150772154331207,-0.4492921233177185,0.3971923887729645,-0.19869664311408997,-8.531951904296875,-1.9478803873062134,-2.8627140522003174,-0.26721838116645813,0.19258734583854675,-0.9703674912452698,9.744415283203125,0.8111594915390015,0.7902473211288452
2.36,-0.2604181468486786,-0.058946214616298676,0.019157733768224716,-1.157208800315857,0.17505641281604767,-0.09997453540563583,0.06403549015522003,-0.43847984075546265,0.41091880202293396,-0.3987288177013397,-0.2604181468486786,-0.058946214616298676,0.019157733768224716,-1.157208800315857,0.17505641281604767,-0.09997453540563583,0.06403549015522003,-0.43847984075546265,0.41091880202293396,-0.3987288177013397,0.6966174244880676,-0.32031676173210144,1.8663508892059326,-2.8369224071502686,6.086385250091553,-1.4605427980422974,0.453351229429245,-0.1879657655954361,-0.04433867707848549,-0.5535146594047546,-0.02933371067047119,-0.17495973408222198,0.05871043726801872,-1.2960753440856934,0.41316598653793335,-0.3255016803741455,0.07159855961799622,-0.4796536862850189,0.45074501633644104,-0.27416515350341797,-7.800188064575195,-1.7172855138778687,-2.8477542400360107,-0.26985466480255127,0.15158693492412567,-0.9508883953094482,9.724449157714844,0.9920576810836792,0.8288651704788208
2.38,-0.23965656757354736,-0.0727527067065239,0.04491126164793968,-1.2023403644561768,0.29620370268821716,-0.1275627315044403,0.06737041473388672,-0.446583092212677,0.41778895258903503,-0.4139540195465088,-0.23965656757354736,-0.0727527067065239,0.04491126164793968,-1.2023403644561768,0.29620370268821716,-0.1275627315044403,0.06737041473388672,-0.446583092212677,0.41778895258903503,-0.4139540195465088,1.3197015523910522,-0.9527175426483154,0.869844913482666,-1.7733632326126099,5.681056976318359,-1.3033455610275269,-0.07207459956407547,-0.532720685005188,0.7182658314704895,-0.9738438129425049,-0.12596754729747772,-0.13324345648288727,0.12193038314580917,-1.208209753036499,0.5782627463340759,-0.22823107242584229,0.08864296972751617,-0.4810791015625,0.5224976539611816,-0.2207264006137848,-6.533829689025879,-1.1540805101394653,-2.8349716663360596,-0.5011420249938965,-0.16961908340454102,-1.0857601165771484,9.702795028686523,1.1802442073822021,0.8359990119934082
2.4,-0.2187928408384323,-0.08594106882810593,0.07043305039405823,-1.2202284336090088,0.4298168420791626,-0.14448007941246033,0.06419479846954346,-0.4556140899658203,0.4423617422580719,-0.43860796093940735,-0.2187928408384323,-0.08594106882810593,0.07043305039405823,-1.2202284336090088,0.4298168420791626,-0.14448007941246033,0.06419479846954346,-0.4556140899658203,0.4423617422580719,-0.43860796093940735,0.8011610507965088,-0.42337659001350403,1.6800509691238403,-0.08450812101364136,7.01118803024292,-0.5271419882774353,-0.20925657451152802,-0.3680279850959778,1.5472252368927002,-1.4029722213745117,-0.21608488261699677,-0.040136292576789856,0.14468859136104584,-1.0732543468475342,0.7374659776687622,-0.07434162497520447,0.11016334593296051,-0.4421285092830658,0.5627020597457886,-0.15638524293899536,-7.825508117675781,-1.9658249616622925,-2.999351739883423,-0.3554191589355469,-0.2014344334602356,-0.6954907774925232,9.683311462402344,1.347954273223877,0.8078346848487854
