time_s,target_dof_right_hip_pitch_04,target_dof_right_hip_roll_03,target_dof_right_hip_yaw_03,target_dof_right_knee_04,target_dof_right_ankle_02,target_dof_left_hip_pitch_04,target_dof_left_hip_roll_03,target_dof_left_hip_yaw_03,target_dof_left_knee_04,target_dof_left_ankle_02,pos_dof_right_hip_pitch_04,pos_dof_right_hip_roll_03,pos_dof_right_hip_yaw_03,pos_dof_right_knee_04,pos_dof_right_ankle_02,pos_dof_left_hip_pitch_04,pos_dof_left_hip_roll_03,pos_dof_left_hip_yaw_03,pos_dof_left_knee_04,pos_dof_left_ankle_02,vel_dof_right_hip_pitch_04,vel_dof_right_hip_roll_03,vel_dof_right_hip_yaw_03,vel_dof_right_knee_04,vel_dof_right_ankle_02,vel_dof_left_hip_pitch_04,vel_dof_left_hip_roll_03,vel_dof_left_hip_yaw_03,vel_dof_left_knee_04,vel_dof_left_ankle_02,policy_target_dof_right_hip_pitch_04,policy_target_dof_right_hip_roll_03,policy_target_dof_right_hip_yaw_03,policy_target_dof_right_knee_04,policy_target_dof_right_ankle_02,policy_target_dof_left_hip_pitch_04,policy_target_dof_left_hip_roll_03,policy_target_dof_left_hip_yaw_03,policy_target_dof_left_knee_04,policy_target_dof_left_ankle_02,acc_x,acc_y,acc_z,gyro_x,gyro_y,gyro_z,pg_x,pg_y,pg_z
0.0,-0.2742033898830414,-0.0803980901837349,0.05913452059030533,-0.9272303581237793,0.45807093381881714,0.2645473778247833,-0.04178799316287041,-0.0356459841132164,0.9383233785629272,-0.5675545930862427,-0.2742033898830414,-0.0803980901837349,0.05913452059030533,-0.9272303581237793,0.45807093381881714,0.2645473778247833,-0.04178799316287041,-0.0356459841132164,0.9383233785629272,-0.5675545930862427,0.0,0.0,0.0,0.0,0.0,0.0,0.0,0.0,0.0,0.0,-0.3548787236213684,-0.04414699599146843,0.0773167535662651,-0.9380785226821899,0.3678443133831024,-0.000253528356552124,0.13851991295814514,-0.04673067480325699,0.6521519422531128,0.24661773443222046,-1.795670884663543e-15,-1.5047172378036182e-16,-2.146240933812712e-16,0.0,0.0,-0.0,9.8100004196167,-2.2824278858024627e-05,2.6844125500247173e-07
0.02,-0.27684056758880615,-0.07168048620223999,0.05707079544663429,-0.9252131581306458,0.43289273977279663,0.2529674470424652,-0.0283388439565897,-0.027309874072670937,0.8838670253753662,-0.30670174956321716,-0.27684056758880615,-0.07168048620223999,0.05707079544663429,-0.9252131581306458,0.43289273977279663,0.2529674470424652,-0.0283388439565897,-0.027309874072670937,0.8838670253753662,-0.30670174956321716,-0.17792686820030212,0.48304077982902527,0.15795555710792542,-0.22705680131912231,-2.948317050933838,-1.226616621017456,0.9636414051055908,0.228559210896492,-4.401182174682617,24.483062744140625,-0.24405035376548767,-0.31876087188720703,0.09438086301088333,-1.0141277313232422,0.38885173201560974,0.12088188529014587,0.07495684921741486,-0.08597655594348907,0.7921249866485596,-0.06133466958999634,0.45875084400177,0.14741989970207214,0.02402457222342491,0.4893880784511566,0.24084168672561646,-0.19837071001529694,9.8099365234375,0.005446461029350758,0.034981440752744675
0.04,-0.28012338280677795,-0.08319810777902603,0.05743887647986412,-0.9392214417457581,0.40291234850883484,0.22996889054775238,-0.027332795783877373,-0.02591574192047119,0.8548526167869568,-0.2360764890909195,-0.28012338280677795,-0.08319810777902603,0.05743887647986412,-0.9392214417457581,0.40291234850883484,0.22996889054775238,-0.027332795783877373,-0.02591574192047119,0.8548526167869568,-0.2360764890909195,-0.04092201963067055,-1.264958381652832,0.050602272152900696,-1.06144118309021,-0.5437679886817932,-0.9459654688835144,-0.39433977007865906,0.1137981116771698,-0.2300662398338318,-4.165825366973877,-0.37698841094970703,-0.07292909920215607,0.06248950958251953,-1.2701478004455566,0.4897506833076477,-0.03974345326423645,0.19357499480247498,-0.03598162531852722,0.5651906728744507,0.013620734214782715,-4.5847344398498535,-0.1221650093793869,0.15087604522705078,0.23441311717033386,-0.3452860116958618,-0.19158940017223358,9.809876441955566,0.04608030244708061,0.01735876314342022
0.06,-0.28626540303230286,-0.09310775995254517,0.06715738773345947,-0.9990716576576233,0.43680691719055176,0.20107853412628174,-0.022593151777982712,-0.010571329854428768,0.8318308591842651,-0.3282890021800995,-0.28626540303230286,-0.09310775995254517,0.06715738773345947,-0.9990716576576233,0.43680691719055176,0.20107853412628174,-0.022593151777982712,-0.010571329854428768,0.8318308591842651,-0.3282890021800995,-0.6339148283004761,0.1581472009420395,0.4088701009750366,-4.538656711578369,2.6022846698760986,-1.9349968433380127,0.6866857409477234,1.0776629447937012,-2.1438536643981934,-5.371413707733154,-0.39790624380111694,0.018832731992006302,-0.009148620069026947,-1.302980661392212,0.6316812038421631,-0.14385876059532166,0.196832075715065,-0.1053350642323494,0.5929421186447144,0.26222676038742065,-6.720612049102783,-2.3723649978637695,-0.22809968888759613,0.5510001182556152,0.24058891832828522,-0.12878409028053284,9.809654235839844,0.08218474686145782,0.004996891599148512
0.08,-0.2980686128139496,-0.0829959511756897,0.05727780982851982,-1.087131381034851,0.5236191749572754,0.16153956949710846,-0.007023594807833433,-0.012429286725819111,0.7810247540473938,-0.44496655464172363,-0.2980686128139496,-0.0829959511756897,0.05727780982851982,-1.087131381034851,0.5236191749572754,0.16153956949710846,-0.007023594807833433,-0.012429286725819111,0.7810247540473938,-0.44496655464172363,-0.5382676124572754,0.7795543670654297,-1.328681468963623,-4.104794502258301,5.072262287139893,-1.9392098188400269,0.865534245967865,-1.1856653690338135,-2.6984708309173584,-6.1670756340026855,-0.5152939558029175,0.01936515048146248,-0.080879345536232,-1.395500898361206,0.8455164432525635,-0.11115655303001404,0.27576780319213867,-0.07835768163204193,0.5559036731719971,0.08649706840515137,-4.7082109451293945,-0.767474889755249,0.1791958212852478,0.31299594044685364,0.6954814195632935,0.05019489675760269,9.809165000915527,0.08375190198421478,0.0968163013458252
0.1,-0.3154498338699341,-0.06656503677368164,0.013549517840147018,-1.1711437702178955,0.6725509762763977,0.12891413271427155,0.015566442161798477,-0.03337939828634262,0.7262939214706421,-0.5741851925849915,-0.3154498338699341,-0.06656503677368164,0.013549517840147018,-1.1711437702178955,0.6725509762763977,0.12891413271427155,0.015566442161798477,-0.03337939828634262,0.7262939214706421,-0.5741851925849915,-1.10784912109375,0.8101284503936768,-2.8196067810058594,-4.2338762283325195,8.30454158782959,-1.4360986948013306,1.3484238386154175,-0.7067729234695435,-2.813948154449463,-6.709959506988525,-0.5004531741142273,0.005135197192430496,-0.03329327702522278,-1.428984522819519,0.845111072063446,-0.1857682466506958,0.3038857579231262,-0.11279202252626419,0.5111254453659058,0.12305176258087158,-4.009233474731445,-0.40255385637283325,-0.34565356373786926,0.24666441977024078,0.9492919445037842,0.41605648398399353,9.806450843811035,0.03662355616688728,0.2612879276275635
0.12,-0.32056188583374023,-0.06217319518327713,-0.017005261033773422,-1.2446902990341187,0.7772300243377686,0.11674085259437561,0.02330620586872101,-0.02240750379860401,0.7369443774223328,-0.6132057309150696,-0.32056188583374023,-0.06217319518327713,-0.017005261033773422,-1.2446902990341187,0.7772300243377686,0.11674085259437561,0.02330620586872101,-0.02240750379860401,0.7369443774223328,-0.6132057309150696,-0.086652971804142,0.5876795649528503,-0.45059433579444885,-3.552198886871338,3.1833784580230713,-1.3326683044433594,0.330666184425354,1.3973541259765625,0.06711683422327042,-0.28322693705558777,-0.5012176036834717,0.036505598574876785,-0.1309252679347992,-1.3434572219848633,1.0626544952392578,-0.19875627756118774,0.318968266248703,-0.033823881298303604,0.6186585426330566,0.09482944011688232,-15.73592472076416,-3.761220932006836,-3.972365617752075,1.313698649406433,-0.16695113480091095,-0.7184728980064392,9.80533218383789,0.07748495042324066,0.29250001907348633
0.14,-0.32747983932495117,-0.0465548001229763,-0.042182501405477524,-1.2926243543624878,0.8993856906890869,0.08772571384906769,0.034974075853824615,0.007939261384308338,0.7290345430374146,-0.6198628544807434,-0.32747983932495117,-0.0465548001229763,-0.042182501405477524,-1.2926243543624878,0.8993856906890869,0.08772571384906769,0.034974075853824615,0.007939261384308338,0.7290345430374146,-0.6198628544807434,-0.46938851475715637,0.868245005607605,-2.200075626373291,-1.3380825519561768,7.571783065795898,-1.4014798402786255,0.7913573980331421,1.5331590175628662,-0.4189349412918091,-0.40956762433052063,-0.5293945670127869,0.011930543929338455,-0.07481487095355988,-1.1097259521484375,0.9398292303085327,-0.15202152729034424,0.27028119564056396,-0.10108109563589096,0.5860841870307922,0.1359260082244873,-10.06350326538086,-1.7713141441345215,-1.0555307865142822,1.5501703023910522,0.15150320529937744,-0.4933422803878784,9.803803443908691,0.20178081095218658,0.28428348898887634
0.16,-0.33878293633461,-0.031031036749482155,-0.07995742559432983,-1.2763103246688843,0.950035572052002,0.06237131357192993,0.0487150177359581,0.028859397396445274,0.7189285159111023,-0.6262233853340149,-0.33878293633461,-0.031031036749482155,-0.07995742559432983,-1.2763103246688843,0.950035572052002,0.06237131357192993,0.0487150177359581,0.028859397396445274,0.7189285159111023,-0.6262233853340149,-0.6629526019096375,0.659079372882843,-1.2279176712036133,2.5452523231506348,-0.3790012001991272,-1.103253960609436,0.5544955134391785,0.7633576393127441,-0.5492574572563171,-0.1744411736726761,-0.2896818518638611,-0.09437631070613861,0.08506208658218384,-0.981778621673584,0.8039690256118774,-0.024087488651275635,0.08262930810451508,-0.09471549093723297,0.7066980004310608,-0.047902911901474,-10.754104614257812,-2.144927740097046,-2.6206400394439697,1.3891187906265259,0.11839302629232407,-0.21035805344581604,9.801012992858887,0.2828311324119568,0.3102402985095978
0.18,-0.3451024293899536,-0.026498157531023026,-0.06912299990653992,-1.204463243484497,0.8914074301719666,0.043934423476457596,0.04918360337615013,0.007737498264759779,0.7137514352798462,-0.6276558041572571,-0.3451024293899536,-0.026498157531023026,-0.06912299990653992,-1.204463243484497,0.8914074301719666,0.043934423476457596,0.04918360337615013,0.007737498264759779,0.7137514352798462,-0.6276558041572571,0.059014588594436646,-0.11723710596561432,2.357320547103882,4.223728179931641,-4.109326362609863,-0.7120720744132996,-0.4035479724407196,-2.350597381591797,0.1915075033903122,-0.07004934549331665,-0.34254664182662964,-0.06319661438465118,0.0786743238568306,-0.953465461730957,0.6845388412475586,0.003491908311843872,0.10203765332698822,-0.12044456601142883,0.6994032263755798,-0.040309756994247437,-4.29702615737915,-0.2549879848957062,-1.1448966264724731,0.8923757672309875,-0.35037270188331604,-0.2871919572353363,9.80022144317627,0.3338882327079773,0.28332647681236267
0.2,-0.34464341402053833,-0.02909649722278118,-0.009888487868010998,-1.126878023147583,0.7915754318237305,0.03339038044214249,0.04224470257759094,-0.03823693096637726,0.7217137813568115,-0.6390318870544434,-0.34464341402053833,-0.02909649722278118,-0.009888487868010998,-1.126878023147583,0.7915754318237305,0.03339038044214249,0.04224470257759094,-0.03823693096637726,0.7217137813568115,-0.6390318870544434,-0.04779338464140892,-0.12155046314001083,2.917482852935791,3.5168280601501465,-5.164937973022461,-0.4302378296852112,-0.23394808173179626,-2.141695976257324,0.4373638331890106,-1.0466728210449219,-0.3190664052963257,-0.059694256633520126,0.11018181592226028,-0.8127210140228271,0.5168184638023376,-0.02629414200782776,0.048265423625707626,-0.08749692887067795,0.6857190728187561,-0.06081196665763855,-4.294271945953369,-1.2600983381271362,-0.5878376364707947,0.6689949035644531,-0.289681613445282,-0.1108703687787056,9.800447463989258,0.37903934717178345,0.20894794166088104
0.22,-0.34310150146484375,-0.0335884615778923,0.043414656072854996,-1.0473769903182983,0.6591891050338745,0.02352692186832428,0.039010751992464066,-0.06555930525064468,0.7285788059234619,-0.6683142185211182,-0.34310150146484375,-0.0335884615778923,0.043414656072854996,-1.0473769903182983,0.6591891050338745,0.02352692186832428,0.039010751992464066,-0.06555930525064468,0.7285788059234619,-0.6683142185211182,0.20526298880577087,-0.46766096353530884,2.5180070400238037,4.423943519592285,-6.998474597930908,-0.3165060877799988,-0.25914692878723145,0.004368687514215708,0.8907402753829956,-1.3317135572433472,-0.2496785819530487,-0.021157156676054,0.1526818871498108,-0.8729445338249207,0.48100852966308594,0.05248180031776428,0.07236462086439133,-0.13451118767261505,0.784652829170227,-0.06635063886642456,-21.373329162597656,-1.533791184425354,-8.361793518066406,0.5934763550758362,-0.32777050137519836,-0.011926566250622272,9.800943374633789,0.394066721200943,0.14936935901641846
0.24,-0.3367774784564972,-0.03807559236884117,0.09386914223432541,-0.9791685938835144,0.5588245391845703,0.020385276526212692,0.0355512909591198,-0.06504908204078674,0.7541205286979675,-0.6929445862770081,-0.3367774784564972,-0.03807559236884117,0.09386914223432541,-0.9791685938835144,0.5588245391845703,0.020385276526212692,0.0355512909591198,-0.06504908204078674,0.7541205286979675,-0.6929445862770081,0.3778994381427765,0.0022991544101387262,2.4054439067840576,2.46217679977417,-3.7000319957733154,-0.08471836894750595,-0.14257659018039703,-0.8511340022087097,1.4328356981277466,-1.5897040367126465,-0.23061516880989075,-0.12768442928791046,0.10603891313076019,-0.7642612457275391,0.32599982619285583,0.11718758940696716,0.009170372039079666,-0.07264240086078644,0.8990086317062378,0.2906176447868347,-4.339200496673584,-1.0683823823928833,-0.7064613699913025,0.37697646021842957,-0.4051375091075897,-0.10558243840932846,9.80116081237793,0.4130563735961914,0.05227118730545044
0.26,-0.3247584402561188,-0.04268130287528038,0.11597394943237305,-0.9562302827835083,0.5998402237892151,0.026839829981327057,0.033854130655527115,-0.0710410550236702,0.794644296169281,-0.719683051109314,-0.3247584402561188,-0.04268130287528038,0.11597394943237305,-0.9562302827835083,0.5998402237892151,0.026839829981327057,0.033854130655527115,-0.0710410550236702,0.794644296169281,-0.719683051109314,-0.19546371698379517,0.1934104561805725,-0.1849568635225296,-1.3879175186157227,1.9981951713562012,0.6028150320053101,0.25875258445739746,-0.09913796186447144,2.204155921936035,-0.8550109267234802,-0.26915815472602844,-0.2411288022994995,0.14850056171417236,-0.8846651315689087,0.2257743775844574,0.06452125310897827,-0.0870245099067688,-0.04398362711071968,0.9234353303909302,0.010608792304992676,-49.35188293457031,6.419698715209961,16.2122802734375,-0.023759130388498306,-0.44562453031539917,0.09640737622976303,9.800987243652344,0.41921567916870117,-0.031729817390441895
0.28,-0.3205518424510956,-0.04792425408959389,0.10819017142057419,-0.9835843443870544,0.6212884187698364,0.031935494393110275,0.02959347516298294,-0.07690391689538956,0.8353033065795898,-0.7104372978210449,-0.3205518424510956,-0.04792425408959389,0.10819017142057419,-0.9835843443870544,0.6212884187698364,0.031935494393110275,0.02959347516298294,-0.07690391689538956,0.8353033065795898,-0.7104372978210449,0.42816540598869324,-0.7212562561035156,-0.21667088568210602,-1.1578699350357056,1.1406937837600708,0.1984041929244995,-0.6568804383277893,0.0029000500217080116,1.948507308959961,1.2795666456222534,-0.2361372709274292,-0.17621394991874695,0.11857593804597855,-0.7053924202919006,-0.556380033493042,0.45794934034347534,-0.02674693986773491,-0.11265242099761963,1.1300222873687744,0.032557129859924316,-13.76236343383789,-0.8520988821983337,-0.012120152823626995,-0.24870404601097107,-0.7338248491287231,-0.3278515040874481,9.798727035522461,0.45918092131614685,-0.10098286718130112
0.3,-0.31321224570274353,-0.060546137392520905,0.09847840666770935,-0.9924322962760925,0.6363096833229065,0.05964263156056404,0.01944655179977417,-0.08042237907648087,0.9005839824676514,-0.6655314564704895,-0.31321224570274353,-0.060546137392520905,0.09847840666770935,-0.9924322962760925,0.6363096833229065,0.05964263156056404,0.01944655179977417,-0.08042237907648087,0.9005839824676514,-0.6655314564704895,0.5138404369354248,-0.46096327900886536,-0.9015890955924988,0.34724634885787964,0.3101917803287506,2.2874834537506104,-0.3029891550540924,-0.6628006100654602,4.288731098175049,3.186997175216675,-0.12822169065475464,-0.19783130288124084,0.12306519597768784,-0.6689538955688477,-0.9410985708236694,0.5598977208137512,-0.043754395097494125,-0.003864247351884842,1.2312129735946655,-0.0908135175704956,-17.563777923583984,-1.5195822715759277,4.141941547393799,-0.9378476738929749,-0.39925986528396606,0.22436709702014923,9.79617691040039,0.46873441338539124,-0.22652488946914673
0.32,-0.2964186668395996,-0.06938601285219193,0.07811206579208374,-0.9718798398971558,0.6350966691970825,0.11067972332239151,0.016618043184280396,-0.07951775938272476,0.9922478199005127,-0.5723727941513062,-0.2964186668395996,-0.06938601285219193,0.07811206579208374,-0.9718798398971558,0.6350966691970825,0.11067972332239151,0.016618043184280396,-0.07951775938272476,0.9922478199005127,-0.5723727941513062,1.0943368673324585,-0.5035726428031921,-0.9947024583816528,1.4919570684432983,-0.32192543148994446,2.707951068878174,-0.049058619886636734,0.8185352683067322,4.704411029815674,5.174422740936279,-0.12173858284950256,-0.19662772119045258,0.10316016525030136,-0.6725010871887207,-0.7570215463638306,0.36273521184921265,-0.019428234547376633,-0.03764514997601509,1.0556344985961914,-0.14039123058319092,-15.540506362915039,-1.0207499265670776,1.608324646949768,-1.04942786693573,-0.3115650713443756,0.16635626554489136,9.796605110168457,0.43207210302352905,-0.2755703628063202
0.34,-0.2688751220703125,-0.08047245442867279,0.06566738337278366,-0.9347226619720459,0.6242632269859314,0.1485826075077057,0.012831946834921837,-0.06225421652197838,1.055809736251831,-0.45714712142944336,-0.2688751220703125,-0.08047245442867279,0.06566738337278366,-0.9347226619720459,0.6242632269859314,0.1485826075077057,0.012831946834921837,-0.06225421652197838,1.055809736251831,-0.45714712142944336,1.3821226358413696,-0.553297221660614,-0.2891015112400055,2.068021535873413,-0.7086758613586426,1.2752944231033325,-0.2912408709526062,0.8036155104637146,1.8415130376815796,5.669583320617676,-0.041957199573516846,-0.147744819521904,0.06377366930246353,-0.6164258718490601,-0.7654693126678467,0.43329712748527527,-0.020648490637540817,0.011151682585477829,1.1233429908752441,-0.3076692521572113,-11.668107986450195,-3.3903017044067383,0.8600167632102966,-0.3813129663467407,-0.5214327573776245,-0.03002953715622425,9.793971061706543,0.4342552423477173,-0.35446831583976746
0.36,-0.24346674978733063,-0.08799727261066437,0.05982659012079239,-0.8879052996635437,0.6062330603599548,0.17523159086704254,0.010601358488202095,-0.04133563116192818,1.0810589790344238,-0.36615845561027527,-0.24346674978733063,-0.08799727261066437,0.05982659012079239,-0.8879052996635437,0.6062330603599548,0.17523159086704254,0.010601358488202095,-0.04133563116192818,1.0810589790344238,-0.36615845561027527,1.269086241722107,-0.22630752623081207,-0.42422083020210266,2.550899028778076,-1.0364075899124146,1.4505573511123657,0.0033067683689296246,1.2147518396377563,0.922386109828949,3.082773447036743,-0.019498050212860107,-0.16691817343235016,0.07585827261209488,-0.6213564872741699,-0.7555840015411377,0.4802619218826294,-0.02155623957514763,0.04720349982380867,1.1778210401535034,-0.3401750326156616,-8.898813247680664,-1.0826960802078247,3.387462854385376,-0.3033580780029297,-0.2569695711135864,0.26611265540122986,9.792032241821289,0.40442490577697754,-0.434326171875
0.38,-0.21917609870433807,-0.09146329015493393,0.05045430362224579,-0.8367846012115479,0.5852149724960327,0.20656058192253113,0.009373149834573269,-0.013295800425112247,1.1028506755828857,-0.3412618637084961,-0.21917609870433807,-0.09146329015493393,0.05045430362224579,-0.8367846012115479,0.5852149724960327,0.20656058192253113,0.009373149834573269,-0.013295800425112247,1.1028506755828857,-0.3412618637084961,1.1799876689910889,-0.15402910113334656,-0.4670925736427307,2.498823881149292,-1.0212295055389404,1.6112720966339111,-0.1269058734178543,1.5989059209823608,1.2776713371276855,0.25325828790664673,-0.06713861227035522,-0.15257208049297333,0.07360464334487915,-0.5998378992080688,-0.43860238790512085,0.4538465738296509,-0.042376335710287094,0.05808736011385918,1.2073283195495605,-0.3168523609638214,-7.162356376647949,-0.1983916312456131,2.3229949474334717,-0.34736526012420654,-0.14364269375801086,0.3413386046886444,9.792864799499512,0.3441999554634094,-0.46627938747406006
0.4,-0.1977166086435318,-0.09369337558746338,0.04334231838583946,-0.7902276515960693,0.5663613080978394,0.2372671365737915,0.004821572918444872,0.01709846593439579,1.1285654306411743,-0.33249831199645996,-0.1977166086435318,-0.09369337558746338,0.04334231838583946,-0.7902276515960693,0.5663613080978394,0.2372671365737915,0.004821572918444872,0.01709846593439579,1.1285654306411743,-0.33249831199645996,0.9659415483474731,-0.06606078892946243,-0.23762701451778412,2.1698524951934814,-0.8711340427398682,1.438974142074585,-0.2997159957885742,1.403472661972046,1.292382836341858,0.5871828198432922,0.017150402069091797,-0.18303591012954712,0.01213526725769043,-0.5680027604103088,-0.5790420770645142,0.6200708746910095,-0.04777241498231888,0.1390688568353653,1.2387102842330933,-0.40355515480041504,-6.622150421142578,-0.3810885548591614,2.183262586593628,-0.1566341072320938,-0.09356580674648285,0.3525642454624176,9.793876647949219,0.2796160578727722,-0.4877426028251648
0.42,-0.1796954870223999,-0.09494958072900772,0.034435804933309555,-0.7478737831115723,0.5498694777488708,0.2701559364795685,-0.0006934474222362041,0.051700659096241,1.1580380201339722,-0.35563063621520996,-0.1796954870223999,-0.09494958072900772,0.034435804933309555,-0.7478737831115723,0.5498694777488708,0.2701559364795685,-0.0006934474222362041,0.051700659096241,1.1580380201339722,-0.35563063621520996,0.941659152507782,-0.080340176820755,-0.7001947164535522,2.1451046466827393,-0.8086550235748291,1.8575140237808228,-0.27854955196380615,2.1376004219055176,1.5407145023345947,-2.0646767616271973,0.06195110082626343,-0.16278746724128723,-0.007883880287408829,-0.5614787340164185,-0.7347726821899414,0.6047137975692749,-0.21412557363510132,0.16394397616386414,1.2761948108673096,-0.540596067905426,-8.141682624816895,-0.23738005757331848,2.495027542114258,-0.4327870309352875,0.00922467466443777,0.45366185903549194,9.795479774475098,0.20145924389362335,-0.49404680728912354
0.44,-0.1578332930803299,-0.099611297249794,0.01719994656741619,-0.7072508335113525,0.5365300178527832,0.3056759238243103,-0.017088014632463455,0.09000164270401001,1.1885024309158325,-0.4372941851615906,-0.1578332930803299,-0.099611297249794,0.01719994656741619,-0.7072508335113525,0.5365300178527832,0.3056759238243103,-0.017088014632463455,0.09000164270401001,1.1885024309158325,-0.4372941851615906,1.1964221000671387,-0.3026544153690338,-0.9526812434196472,1.920143961906433,-0.5542452335357666,1.6966902017593384,-1.2457325458526611,1.7677644491195679,1.5277165174484253,-4.918912410736084,-0.23675861954689026,-0.10374203324317932,-0.12232595682144165,-0.6152409315109253,-1.0185234546661377,0.3820878267288208,-0.06857330352067947,0.25073033571243286,0.8550510406494141,-0.5906306505203247,-6.882211685180664,0.010629532858729362,2.6935653686523438,-0.8150506019592285,-0.1052575632929802,0.27019184827804565,9.796201705932617,0.13669930398464203,-0.5018366575241089
0.46,-0.14592939615249634,-0.1022500991821289,-0.018757430836558342,-0.6852152943611145,0.5216230750083923,0.3277520537376404,-0.03178751841187477,0.14604148268699646,1.150951862335205,-0.5139520168304443,-0.14592939615249634,-0.1022500991821289,-0.018757430836558342,-0.6852152943611145,0.5216230750083923,0.3277520537376404,-0.03178751841187477,0.14604148268699646,1.150951862335205,-0.5139520168304443,-0.013209328055381775,0.005969041958451271,-2.672804594039917,0.4066409766674042,-0.846996545791626,0.6245282292366028,-0.25872117280960083,3.567049026489258,-4.842353343963623,-3.367311954498291,-0.18464793264865875,0.025041956454515457,-0.11250568926334381,-0.6922600269317627,-0.7171617746353149,0.07524868845939636,-0.06870601326227188,-0.011169466190040112,0.5280818343162537,-0.48980262875556946,-5.15720272064209,-1.3243379592895508,2.0808074474334717,-0.08834995329380035,0.2202019840478897,0.5082632303237915,9.797444343566895,0.0747738927602768,-0.4905000627040863
0.48,-0.14361979067325592,-0.09380935877561569,-0.061886802315711975,-0.6836836338043213,0.5052526593208313,0.32022252678871155,-0.038863394409418106,0.15837691724300385,1.0050690174102783,-0.5199224352836609,-0.14361979067325592,-0.09380935877561569,-0.061886802315711975,-0.6836836338043213,0.5052526593208313,0.32022252678871155,-0.038863394409418106,0.15837691724300385,1.0050690174102783,-0.5199224352836609,0.11701864749193192,0.8733577132225037,-1.5822062492370605,-0.33711376786231995,-0.8807660937309265,-1.1009207963943481,-0.3346676528453827,-2.5880744457244873,-8.883549690246582,1.305019736289978,-0.3794603645801544,0.07975161075592041,-0.06037163361907005,-0.8974525928497314,-0.27043259143829346,-0.06503668427467346,-0.0377279594540596,-0.11491771042346954,0.5654234290122986,-0.14543434977531433,-3.9859871864318848,0.26305776834487915,2.8804361820220947,0.25339144468307495,0.7741854786872864,0.10872475057840347,9.80186653137207,0.008183104917407036,-0.3993096947669983
0.5,-0.15576276183128357,-0.07007665187120438,-0.07555829733610153,-0.7188763618469238,0.48865023255348206,0.29402706027030945,-0.04051833972334862,0.06771448254585266,0.8519757390022278,-0.375020295381546,-0.15576276183128357,-0.07007665187120438,-0.07555829733610153,-0.7188763618469238,0.48865023255348206,0.29402706027030945,-0.04051833972334862,0.06771448254585266,0.8519757390022278,-0.375020295381546,-1.113580346107483,1.3551725149154663,0.033285293728113174,-2.9882659912109375,-0.8057501912117004,-1.6673846244812012,0.10177245736122131,-5.589460372924805,-6.293850898742676,10.502917289733887,-0.3731227517127991,-0.004620026797056198,-0.04406485706567764,-1.6183830499649048,0.13698866963386536,-0.26217275857925415,0.11390911042690277,-0.0877264216542244,0.4405088722705841,0.013593196868896484,-3.175583839416504,1.592064380645752,1.2601455450057983,0.8969525098800659,1.1460721492767334,-0.02129722200334072,9.807943344116211,-0.013003302738070488,-0.20044273138046265
0.52,-0.1901567429304123,-0.053088217973709106,-0.07027779519557953,-0.8729486465454102,0.43174606561660767,0.2335495501756668,-0.03425337001681328,-0.0176733136177063,0.7747687697410583,-0.4437210261821747,-0.1901567429304123,-0.053088217973709106,-0.07027779519557953,-0.8729486465454102,0.43174606561660767,0.2335495501756668,-0.03425337001681328,-0.0176733136177063,0.7747687697410583,-0.4437210261821747,-2.0134828090667725,0.5255805253982544,0.3874565660953522,-11.814126014709473,-8.70231819152832,-3.8404548168182373,0.627966582775116,-2.7645018100738525,-4.246992111206055,-5.031528472900391,-0.6229065656661987,0.09760035574436188,-0.1979258954524994,-1.7163008451461792,0.36626940965652466,-0.32489103078842163,0.25275516510009766,-0.12586641311645508,0.4657135307788849,0.1296771764755249,-3.694640636444092,0.3871456980705261,-1.9685797691345215,1.7233744859695435,0.7613824605941772,-0.575890064239502,9.80988597869873,0.04278501495718956,-0.020115092396736145
0.54,-0.23320487141609192,-0.04185923561453819,-0.08703644573688507,-1.1107268333435059,0.3792613446712494,0.17128202319145203,-0.01539239939302206,-0.04635174572467804,0.7128429412841797,-0.5327452421188354,-0.23320487141609192,-0.04185923561453819,-0.08703644573688507,-1.1107268333435059,0.3792613446712494,0.17128202319145203,-0.01539239939302206,-0.04635174572467804,0.7128429412841797,-0.5327452421188354,-1.7472038269042969,0.00265599531121552,-1.9668952226638794,-11.287517547607422,-1.1929566860198975,-1.342100977897644,0.5948601365089417,0.7645025253295898,0.21587146818637848,-0.3693275451660156,-0.5525543689727783,0.0026519186794757843,0.09502186626195908,-1.71689772605896,0.3698159158229828,-0.2832437753677368,0.25516971945762634,-0.15839353203773499,0.47695013880729675,0.28374844789505005,-46.41863250732422,4.4317498207092285,-16.076128005981445,1.194955825805664,0.4142013490200043,-0.3409397006034851,9.808030128479004,0.1342819631099701,0.1435750275850296
0.56,-0.260666161775589,-0.027970097959041595,-0.07846859842538834,-1.30476713180542,0.3673487901687622,0.1253306120634079,-0.0009865912143141031,-0.023853931576013565,0.6920109391212463,-0.5323489904403687,-0.260666161775589,-0.027970097959041595,-0.07846859842538834,-1.30476713180542,0.3673487901687622,0.1253306120634079,-0.0009865912143141031,-0.023853931576013565,0.6920109391212463,-0.5323489904403687,-1.4065499305725098,0.8256856799125671,2.676320791244507,-8.31837272644043,-0.27495214343070984,-2.520340919494629,0.5331722497940063,0.8196056485176086,-1.643626093864441,0.2579972445964813,-0.5717614889144897,-0.0730540007352829,0.07217112928628922,-1.666896104812622,0.46255382895469666,-0.1818501353263855,0.2082251012325287,-0.17100690305233002,0.4860263764858246,0.3635404109954834,-10.785250663757324,-2.639631509780884,-2.1277809143066406,1.6335819959640503,0.1975756138563156,-0.8257207870483398,9.803316116333008,0.3042435348033905,0.19628526270389557
0.58,-0.2923251986503601,-0.019177569076418877,-0.023569751530885696,-1.4332326650619507,0.39886486530303955,0.08072338253259659,0.004598839208483696,-0.04324811324477196,0.6553646922111511,-0.5311827659606934,-0.2923251986503601,-0.019177569076418877,-0.023569751530885696,-1.4332326650619507,0.39886486530303955,0.08072338253259659,0.004598839208483696,-0.04324811324477196,0.6553646922111511,-0.5311827659606934,-1.6548950672149658,0.11296064406633377,2.397491931915283,-4.901712894439697,2.5910286903381348,-1.933788776397705,0.21383632719516754,-1.9036372900009155,-1.8403440713882446,-0.11456786841154099,-0.513921856880188,-0.08089222013950348,-0.01924433559179306,-1.726707100868225,0.6616020202636719,-0.32363343238830566,0.23905079066753387,-0.04755008965730667,0.4445756673812866,0.3665677309036255,-5.939362525939941,-2.3682808876037598,0.4147075116634369,1.2106127738952637,0.17573371529579163,-0.26145949959754944,9.79885196685791,0.4132266342639923,0.21872082352638245
0.6,-0.3164045512676239,-0.023222532123327255,0.0028552119620144367,-1.51751708984375,0.5137282609939575,0.04055161774158478,0.014333554543554783,-0.038461100310087204,0.6192574501037598,-0.5278341174125671,-0.3164045512676239,-0.023222532123327255,0.0028552119620144367,-1.51751708984375,0.5137282609939575,0.04055161774158478,0.014333554543554783,-0.038461100310087204,0.6192574501037598,-0.5278341174125671,-0.9645586013793945,-0.3363608419895172,0.33174842596054077,-3.8910887241363525,7.034952163696289,-2.1895041465759277,0.6492424011230469,0.9201632142066956,-1.9554754495620728,0.2503671646118164,-0.627290666103363,-0.07807625830173492,-0.008306488394737244,-1.7689355611801147,0.8741589188575745,-0.35904431343078613,0.2921433448791504,0.021627366542816162,0.46377432346343994,0.2881404161453247,-9.305153846740723,-1.597737431526184,-1.5414655208587646,0.871147632598877,0.2529817521572113,-0.4750078618526459,9.794821739196777,0.4836449921131134,0.25231367349624634
0.62,-0.34070709347724915,-0.027751488611102104,0.001572239794768393,-1.5903998613357544,0.6866585612297058,-0.0005353792221285403,0.030457621440291405,-0.015364685095846653,0.5827764272689819,-0.5248812437057495,-0.34070709347724915,-0.027751488611102104,0.001572239794768393,-1.5903998613357544,0.6866585612297058,-0.0005353792221285403,0.030457621440291405,-0.015364685095846653,0.5827764272689819,-0.5248812437057495,-1.424196481704712,-0.1449650675058365,-0.22387470304965973,-3.396151542663574,9.040206909179688,-1.9906076192855835,0.8981038928031921,1.3401548862457275,-1.7104796171188354,0.07045580446720123,-0.5846943855285645,-0.09343485534191132,-0.022756405174732208,-1.7617853879928589,0.9326735734939575,-0.3077961802482605,0.22332985699176788,-0.030644647777080536,0.49069666862487793,0.21423816680908203,-7.757545471191406,-1.0731362104415894,-1.208162546157837,1.0875099897384644,0.429279088973999,-0.32204705476760864,9.788759231567383,0.5651239156723022,0.3113356828689575
0.64,-0.3678745925426483,-0.033698517829179764,-0.007915751077234745,-1.6451427936553955,0.824996829032898,-0.037172988057136536,0.046376317739486694,0.003077385714277625,0.5564100742340088,-0.5277219414710999,-0.3678745925426483,-0.033698517829179764,-0.007915751077234745,-1.6451427936553955,0.824996829032898,-0.037172988057136536,0.046376317739486694,0.003077385714277625,0.5564100742340088,-0.5277219414710999,-1.254099726676941,-0.3779008984565735,-0.6133518218994141,-2.225828170776367,5.346783638000488,-1.6854732036590576,0.7554104328155518,0.4264901578426361,-1.0302633047103882,-0.371978223323822,-0.6042227745056152,-0.10140414535999298,0.011295080184936523,-1.7264169454574585,1.1485652923583984,-0.2902395725250244,0.23841461539268494,-0.1754121333360672,0.4611462652683258,0.13887953758239746,-4.369520664215088,-0.756074070930481,-0.5543069243431091,0.8679924607276917,0.4140447676181793,-0.3262183964252472,9.781837463378906,0.6358632445335388,0.3839602470397949
0.66,-0.39069005846977234,-0.04143814370036125,-0.014155622571706772,-1.6763142347335815,0.9746606945991516,-0.067467100918293,0.05933864787220955,-0.013373129069805145,0.5414422154426575,-0.5295896530151367,-0.39069005846977234,-0.04143814370036125,-0.014155622571706772,-1.6763142347335815,0.9746606945991516,-0.067467100918293,0.05933864787220955,-0.013373129069805145,0.5414422154426575,-0.5295896530151367,-1.1321308612823486,-0.3073577880859375,0.03207462653517723,-1.0078519582748413,8.36602783203125,-1.4671019315719604,0.6499592065811157,-2.711709499359131,-0.7499123811721802,-1.4456485509872437,-0.629601001739502,-0.06760077178478241,0.013745464384555817,-1.6725494861602783,1.2686760425567627,-0.30790281295776367,0.22667931020259857,-0.15753906965255737,0.49374884366989136,0.11255073547363281,-5.364250183105469,-1.9150720834732056,-1.2627346515655518,0.5090252161026001,0.4078323543071747,-0.2587416172027588,9.7744140625,0.7011685967445374,0.45308342576026917
0.68,-0.41251900792121887,-0.04661695659160614,-0.00761108985170722,-1.6833573579788208,1.1283509731292725,-0.09366316348314285,0.07201553136110306,-0.051731862127780914,0.5321155786514282,-0.5499316453933716,-0.41251900792121887,-0.04661695659160614,-0.00761108985170722,-1.6833573579788208,1.1283509731292725,-0.09366316348314285,0.07201553136110306,-0.051731862127780914,0.5321155786514282,-0.5499316453933716,-1.1159262657165527,-0.11547703295946121,0.5061163306236267,0.11723531782627106,6.878133773803711,-1.2505319118499756,0.7195600867271423,-1.959452509880066,-0.537822961807251,-0.7862213253974915,-0.5907731652259827,-0.0039767734706401825,-0.015498705208301544,-1.5402854681015015,1.2425358295440674,-0.2882728576660156,0.26308944821357727,-0.10884802788496017,0.5309840440750122,0.17013466358184814,-3.991215467453003,-1.06744384765625,-1.0770010948181152,0.3407551646232605,0.39040523767471313,-0.19808709621429443,9.767526626586914,0.7473905086517334,0.5224306583404541
0.7,-0.43106552958488464,-0.04535829275846481,-0.0012743179686367512,-1.6591242551803589,1.2041354179382324,-0.11662989109754562,0.0886455625295639,-0.0682842805981636,0.5316572189331055,-0.567190945148468,-0.43106552958488464,-0.04535829275846481,-0.0012743179686367512,-1.6591242551803589,1.2041354179382324,-0.11662989109754562,0.0886455625295639,-0.0682842805981636,0.5316572189331055,-0.567190945148468,-0.7585675120353699,0.19259855151176453,0.07698756456375122,2.0885090827941895,1.9036567211151123,-1.0172613859176636,0.9242864847183228,0.20451930165290833,0.3390173614025116,-1.2434509992599487,-0.6044397950172424,0.036653388291597366,-0.1166916936635971,-1.2394415140151978,1.3729770183563232,-0.06703951954841614,0.2864348292350769,-0.12822109460830688,0.6646066904067993,0.030902504920959473,-7.265969276428223,-1.6232216358184814,-2.368894338607788,0.19974982738494873,0.46139660477638245,-0.24006645381450653,9.759403228759766,0.7916449904441833,0.6028708815574646
0.72,-0.44751352071762085,-0.03896898776292801,-0.0197735708206892,-1.5764676332473755,1.2566370614359172,-0.12183055281639099,0.11023065447807312,-0.07832712680101395,0.555924654006958,-0.5976001620292664,-0.44751352071762085,-0.03896898776292801,-0.0197735708206892,-1.5764676332473755,1.2712085247039795,-0.12183055281639099,0.11023065447807312,-0.07832712680101395,0.555924654006958,-0.5976001620292664,-0.8464013934135437,0.4222719073295593,-1.9046179056167603,5.8871941566467285,3.0864596366882324,0.2969813942909241,1.2065256834030151,-1.2223026752471924,1.8550894260406494,-1.8928734064102173,-0.7141584157943726,0.02858533337712288,-0.13027094304561615,-1.1279330253601074,1.1833348274230957,-0.07728448510169983,0.2864152193069458,-0.0708560049533844,0.6550842523574829,0.09309661388397217,-4.166384220123291,-0.9945504665374756,-1.2889039516448975,-0.20812886953353882,0.6702895164489746,0.20179195702075958,9.751784324645996,0.7974520325660706,0.7091330289840698
0.74,-0.46829700469970703,-0.031040748581290245,-0.06162117421627045,-1.4532220363616943,1.2463340759277344,-0.1153562143445015,0.13172954320907593,-0.08599884808063507,0.5939619541168213,-0.637612521648407,-0.46829700469970703,-0.031040748581290245,-0.06162117421627045,-1.4532220363616943,1.2463340759277344,-0.1153562143445015,0.13172954320907593,-0.08599884808063507,0.5939619541168213,-0.637612521648407,-1.215937614440918,0.38173145055770874,-2.020592212677002,6.196727752685547,-3.026028633117676,0.264085054397583,0.9099870324134827,0.3228047788143158,1.8592759370803833,-1.9362521171569824,-0.6087062358856201,0.08841507136821747,-0.05875556170940399,-0.8913947343826294,0.8825933933258057,-0.21361684799194336,0.25877514481544495,-0.08610614389181137,0.7479069232940674,0.08075201511383057,-6.358019828796387,-2.1100080013275146,-3.3976187705993652,0.17514295876026154,0.4312012493610382,0.3390246033668518,9.747282028198242,0.7419105172157288,0.8222911357879639
0.76,-0.484963595867157,-0.017220627516508102,-0.08280559629201889,-1.3116137981414795,1.0887893438339233,-0.11831378191709518,0.1479853391647339,-0.07977819442749023,0.6295057535171509,-0.6776459217071533,-0.484963595867157,-0.017220627516508102,-0.08280559629201889,-1.3116137981414795,1.0887893438339233,-0.11831378191709518,0.1479853391647339,-0.07977819442749023,0.6295057535171509,-0.6776459217071533,-0.5588838458061218,0.8598020672798157,-0.11608648300170898,7.783246994018555,-10.122016906738281,-0.3965316712856293,0.6801794767379761,0.12196477502584457,1.8182859420776367,-2.15844988822937,-0.2721908390522003,0.10538776218891144,0.19020600616931915,-0.3387627601623535,0.45745497941970825,0.041055828332901,0.0657772421836853,-0.00939025729894638,0.8651432991027832,-0.02228415012359619,-3.0370607376098633,-0.3059348464012146,-2.1219141483306885,0.5827209949493408,0.2902086675167084,-0.014432301744818687,9.743663787841797,0.7167546153068542,0.8850836753845215
0.78,-0.4805431067943573,-0.0005626262864097953,-0.03163136914372444,-1.0906213521957397,0.7947578430175781,-0.11851007491350174,0.15313506126403809,-0.06949108839035034,0.6871034502983093,-0.710764467716217,-0.4805431067943573,-0.0005626262864097953,-0.03163136914372444,-1.0906213521957397,0.7947578430175781,-0.11851007491350174,0.15313506126403809,-0.06949108839035034,0.6871034502983093,-0.710764467716217,0.9303571581840515,0.6753584742546082,5.3218302726745605,13.711499214172363,-16.793935775756836,0.4088858664035797,-0.164840430021286,1.0061975717544556,3.8637962341308594,-2.3401858806610107,-0.00335007905960083,-0.039670344442129135,0.21758730709552765,-0.35757744312286377,0.009465575218200684,0.5505181550979614,-0.11742940545082092,-0.14675483107566833,0.7743889093399048,-0.10052433609962463,-4.069124698638916,-1.6038169860839844,-3.9628469944000244,0.4556427597999573,-0.3555729389190674,-0.10968317836523056,9.742202758789062,0.742250382900238,0.880139946937561
0.8,-0.4588164687156677,-0.007040044758468866,0.08400501310825348,-0.8456578254699707,0.4164544939994812,-0.09429211914539337,0.13255055248737335,-0.08647526800632477,0.7683266401290894,-0.7421586513519287,-0.4588164687156677,-0.007040044758468866,0.08400501310825348,-0.8456578254699707,0.4164544939994812,-0.09429211914539337,0.13255055248737335,-0.08647526800632477,0.7683266401290894,-0.7421586513519287,1.3783648014068604,-0.9231940507888794,5.6247053146362305,10.601971626281738,-19.48798942565918,1.7515870332717896,-1.4565457105636597,-2.466111421585083,4.34061336517334,-2.192427635192871,0.0019679665565490723,-0.14534048736095428,-0.0024250969290733337,-0.4982271194458008,-0.40691155195236206,0.6024308204650879,-0.25265786051750183,0.015610408037900925,0.8403909802436829,-0.10563921928405762,-6.199594497680664,-5.522237777709961,-3.2887556552886963,-0.5494069457054138,-1.2481571435928345,0.4294297695159912,9.758502006530762,0.7132806777954102,0.7063806653022766
0.82,-0.46017539501190186,-0.0168490931391716,0.10232920199632645,-0.8051068186759949,0.2838302552700043,-0.05309819057583809,0.1198078989982605,-0.1040613129734993,0.8407405614852905,-0.7413084506988525,-0.46017539501190186,-0.0168490931391716,0.10232920199632645,-0.8051068186759949,0.2838302552700043,-0.05309819057583809,0.1198078989982605,-0.1040613129734993,0.8407405614852905,-0.7413084506988525,0.3521636724472046,-0.4639328718185425,-1.4527498483657837,-0.5495923161506653,2.8713018894195557,1.9393190145492554,-0.05075116083025932,0.43521326780319214,3.2047882080078125,0.7796546816825867,-0.11751174926757812,-0.3232347369194031,0.06489338725805283,-0.6463280916213989,-0.9178307056427002,0.6187248826026917,-0.19127945601940155,0.06763449311256409,0.900061845779419,0.12457382678985596,-34.501220703125,2.4318742752075195,5.34431266784668,-0.929869532585144,-0.0010342191671952605,0.44127050042152405,9.776310920715332,0.5696830749511719,0.5790518522262573
0.84,-0.441667377948761,-0.04235750436782837,0.07286233454942703,-0.7829606533050537,0.29956725239753723,-0.00296003301627934,0.1027151420712471,-0.07871616631746292,0.8955865502357483,-0.6660380363464355,-0.441667377948761,-0.04235750436782837,0.07286233454942703,-0.7829606533050537,0.29956725239753723,-0.00296003301627934,0.1027151420712471,-0.07871616631746292,0.8955865502357483,-0.6660380363464355,1.0111172199249268,-1.8218923807144165,-1.1921908855438232,1.6164482831954956,0.020188676193356514,2.714676856994629,-1.3312218189239502,1.9730846881866455,2.755190849304199,3.0257809162139893,-0.15730217099189758,-0.27152031660079956,0.131175696849823,-0.7171609997749329,-0.9263619184494019,0.5020179152488708,-0.12887977063655853,-0.0237601138651371,1.0810935497283936,0.05199778079986572,-17.957683563232422,-1.1801303625106812,-4.837843418121338,-1.7297450304031372,-0.8806620836257935,0.5881160497665405,9.785223960876465,0.46504274010658264,0.5188648700714111
0.86,-0.4208741784095764,-0.07687220722436905,0.07277612388134003,-0.7505180835723877,0.29571908712387085,0.049266550689935684,0.0773528441786766,-0.05262415483593941,0.9540611505508423,-0.5396525859832764,-0.4208741784095764,-0.07687220722436905,0.07277612388134003,-0.7505180835723877,0.29571908712387085,0.049266550689935684,0.0773528441786766,-0.05262415483593941,0.9540611505508423,-0.5396525859832764,1.0698280334472656,-1.5811835527420044,1.1902658939361572,1.4375742673873901,-0.1996692419052124,2.4926564693450928,-1.2103800773620605,0.3786112368106842,3.1875979900360107,6.184234619140625,-0.15294620394706726,-0.3478964567184448,0.0610329732298851,-0.6769044399261475,-1.1068675518035889,0.42513254284858704,-0.04993225261569023,-0.018921393901109695,1.0408713817596436,-0.05107131600379944,-7.773238658905029,1.689016342163086,-1.1831741333007812,-1.4906336069107056,-1.1765912771224976,0.3859080374240875,9.798506736755371,0.35032492876052856,0.32037749886512756
0.88,-0.3964400887489319,-0.11068017780780792,0.08331441134214401,-0.725129246711731,0.2915964126586914,0.09136678278446198,0.054215479642152786,-0.0402226522564888,1.005785584449768,-0.40521538257598877,-0.3964400887489319,-0.11068017780780792,0.08331441134214401,-0.725129246711731,0.2915964126586914,0.09136678278446198,0.054215479642152786,-0.0402226522564888,1.005785584449768,-0.40521538257598877,1.2729252576828003,-1.7434618473052979,-0.33769017457962036,1.143751859664917,-0.27724766731262207,1.8203370571136475,-0.9907055497169495,0.8970802426338196,2.08004093170166,6.827258586883545,-0.1470293402671814,-0.2481229305267334,0.03202658146619797,-0.6350906491279602,-1.0199651718139648,0.3326641917228699,-0.031364601105451584,-0.06924179196357727,1.097967267036438,-0.10503795742988586,-7.710500717163086,0.02841978706419468,0.6941028833389282,-1.3543527126312256,-1.1836446523666382,0.06804000586271286,9.804758071899414,0.30806487798690796,0.08901359140872955
0.9,-0.3698035180568695,-0.1382882446050644,0.07247339189052582,-0.7032744288444519,0.283830463886261,0.12196430563926697,0.03960443660616875,-0.031547073274850845,1.0401707887649536,-0.27442535758018494,-0.3698035180568695,-0.1382882446050644,0.07247339189052582,-0.7032744288444519,0.283830463886261,0.12196430563926697,0.03960443660616875,-0.031547073274850845,1.0401707887649536,-0.27442535758018494,1.3518810272216797,-1.0324329137802124,-0.698947548866272,1.041960597038269,-0.45602846145629883,1.3205991983413696,-0.5616205334663391,-0.13553699851036072,1.5166869163513184,5.870643138885498,-0.11428740620613098,-0.3193337917327881,0.03449151664972305,-0.6079152822494507,-0.9666053056716919,0.3068837821483612,0.00029336288571357727,-0.012033271603286266,1.170349359512329,-0.304334431886673,-5.4959797859191895,0.5095273852348328,2.8914408683776855,-1.1721155643463135,-0.6677407622337341,-0.07014893740415573,9.80473518371582,0.30889055132865906,-0.08859193325042725
0.92,-0.3422132432460785,-0.1558932214975357,0.0533427931368351,-0.6831554174423218,0.27954182028770447,0.1451721340417862,0.03185461461544037,-0.031508710235357285,1.0733426809310913,-0.25290295481681824,-0.3422132432460785,-0.1558932214975357,0.0533427931368351,-0.6831554174423218,0.27954182028770447,0.1451721340417862,0.03185461461544037,-0.031508710235357285,1.0733426809310913,-0.25290295481681824,1.4037501811981201,-0.8381887078285217,-1.0643060207366943,0.9810863137245178,0.0948236808180809,1.0695533752441406,-0.28343406319618225,0.3726114332675934,1.743990182876587,-2.1150288581848145,-0.12424537539482117,-0.24793648719787598,0.062499724328517914,-0.5974677801132202,-0.7439582347869873,0.35882848501205444,0.07546649128198624,-0.002862054156139493,1.1637870073318481,-0.36375492811203003,-4.721059322357178,0.7633432745933533,1.560071587562561,-1.0322206020355225,-0.4376245141029358,-0.13096804916858673,9.802770614624023,0.33137309551239014,-0.1788385510444641
0.94,-0.3170420229434967,-0.16635829210281372,0.04457338526844978,-0.6646403074264526,0.2861554026603699,0.16783227026462555,0.03293696045875549,-0.018991701304912567,1.1027475595474243,-0.3056448996067047,-0.3170420229434967,-0.16635829210281372,0.04457338526844978,-0.6646403074264526,0.2861554026603699,0.16783227026462555,0.03293696045875549,-0.018991701304912567,1.1027475595474243,-0.3056448996067047,1.1557310819625854,-0.29766780138015747,0.03089124523103237,0.8980928063392639,0.5410844087600708,1.1926705837249756,0.27619388699531555,0.671338677406311,1.1900320053100586,-2.6941590309143066,-0.141106516122818,-0.22110143303871155,0.07976532727479935,-0.5960667133331299,-0.5209062099456787,0.3994021415710449,-0.026239361613988876,0.07894338667392731,1.1329982280731201,-0.2888668179512024,-4.810006618499756,0.6167857050895691,1.8702481985092163,-0.8897857666015625,-0.1623079478740692,0.0060095228254795074,9.801072120666504,0.34821653366088867,-0.23200112581253052
0.96,-0.2972680330276489,-0.17307265102863312,0.05270154029130936,-0.6491904258728027,0.3054564297199249,0.19240586459636688,0.03351975604891777,0.0019367054337635636,1.116429090499878,-0.3122541010379791,-0.2972680330276489,-0.17307265102863312,0.05270154029130936,-0.6491904258728027,0.3054564297199249,0.19240586459636688,0.03351975604891777,0.0019367054337635636,1.116429090499878,-0.3122541010379791,0.87565678358078,-0.367428183555603,0.7192579507827759,0.7016133069992065,1.3175508975982666,1.2445454597473145,-0.19639448821544647,1.5776958465576172,0.32884740829467773,0.9727332592010498,-0.09463495016098022,-0.229559987783432,0.023215554654598236,-0.5494917631149292,-0.7482579946517944,0.5208079218864441,0.001351386308670044,0.09306176006793976,1.2351665496826172,-0.3177037835121155,-4.814210414886475,0.6362147927284241,2.1968252658843994,-0.7028350830078125,-0.26247918605804443,0.12083691358566284,9.800530433654785,0.33913469314575195,-0.2658751308917999
0.98,-0.2820350229740143,-0.17818529903888702,0.05154695361852646,-0.6375239491462708,0.33027613162994385,0.22295212745666504,0.032012827694416046,0.03592150658369064,1.136892557144165,-0.3095090091228485,-0.2820350229740143,-0.17818529903888702,0.05154695361852646,-0.6375239491462708,0.33027613162994385,0.22295212745666504,0.032012827694416046,0.03592150658369064,1.136892557144165,-0.3095090091228485,0.5051888823509216,-0.0004586300638038665,-0.9835101366043091,-0.005821558181196451,0.2544153034687042,1.6267733573913574,0.12594807147979736,1.5436110496520996,1.5425405502319336,-0.29086175560951233,-0.12983596324920654,-0.2408641278743744,-0.06354161351919174,-0.5455539226531982,-0.8300758600234985,0.5927000045776367,-0.14949163794517517,0.07760071754455566,1.1421093940734863,-0.4445566236972809,-15.013212203979492,2.6595091819763184,6.932422637939453,-0.7974287867546082,0.23522235453128815,0.19654586911201477,9.80111026763916,0.30717647075653076,-0.282794326543808
1.0,-0.26774826645851135,-0.18252716958522797,0.023931900039315224,-0.6312910318374634,0.33491113781929016,0.2577871084213257,0.020189957693219185,0.05154382437467575,1.1535673141479492,-0.3598865270614624,-0.26774826645851135,-0.18252716958522797,0.023931900039315224,-0.6312910318374634,0.33491113781929016,0.2577871084213257,0.020189957693219185,0.05154382437467575,1.1535673141479492,-0.3598865270614624,0.7392498254776001,-0.28705325722694397,-1.593644380569458,0.4773436486721039,0.1949446201324463,1.9094834327697754,-1.0474516153335571,0.3322538137435913,0.058402806520462036,-3.7517294883728027,-0.6446536779403687,-0.14480945467948914,-0.1543775498867035,-0.6689814925193787,-1.1238393783569336,0.1537984311580658,0.019178472459316254,0.024459486827254295,0.5458199977874756,-0.46615755558013916,-8.721001625061035,0.0684838742017746,4.170014381408691,-1.3288540840148926,0.21940571069717407,0.23430030047893524,9.803108215332031,0.2859436571598053,-0.23109185695648193
1.02,-0.2732541859149933,-0.18179109692573547,-0.02467978559434414,-0.6458451747894287,0.32834431529045105,0.275381475687027,0.009037748910486698,0.06089946627616882,1.0578840970993042,-0.4112604856491089,-0.2732541859149933,-0.18179109692573547,-0.02467978559434414,-0.6458451747894287,0.32834431529045105,0.275381475687027,0.009037748910486698,0.06089946627616882,1.0578840970993042,-0.4112604856491089,-1.3074814081192017,0.3051724433898926,-3.2818219661712646,-1.8166167736053467,-0.7690497636795044,-0.0539548322558403,-0.05440071225166321,0.22944417595863342,-8.866676330566406,-2.2100021839141846,-0.5733779072761536,0.0034963898360729218,-0.10144676268100739,-0.6747070550918579,-0.8366117477416992,0.05629506707191467,0.15357327461242676,-0.1611613780260086,0.2321927547454834,-0.35707610845565796,-5.445947170257568,-1.472130298614502,2.9786360263824463,0.026469780132174492,0.6392549872398376,0.5546466112136841,9.806532859802246,0.21835389733314514,-0.14262449741363525
1.04,-0.2990947961807251,-0.16234880685806274,-0.06918329000473022,-0.6765316724777222,0.3097420632839203,0.2604890763759613,0.018276412039995193,0.019845830276608467,0.8538878560066223,-0.43500983715057373,-0.2990947961807251,-0.16234880685806274,-0.06918329000473022,-0.6765316724777222,0.3097420632839203,0.2604890763759613,0.018276412039995193,0.019845830276608467,0.8538878560066223,-0.43500983715057373,-1.215834617614746,1.307491421699524,-1.2501810789108276,-1.1874200105667114,-1.186135172843933,-1.5975903272628784,0.5430312156677246,-4.494818210601807,-7.228482723236084,-15.603927612304688,-0.5924084186553955,0.0534110851585865,-0.09859178960323334,-1.6698319911956787,-0.035207152366638184,-0.25906866788864136,0.18863952159881592,-0.08662569522857666,0.42009955644607544,-0.026598602533340454,-29.78278350830078,-6.87680721282959,-6.734015941619873,0.6601400971412659,1.4252790212631226,0.6220460534095764,9.809305191040039,0.10081131011247635,0.058853939175605774
1.06,-0.3413402736186981,-0.13714507222175598,-0.08499041944742203,-0.8036409020423889,0.3045041561126709,0.2164086103439331,0.0371587872505188,-0.0462820902466774,0.727317214012146,-0.5130751132965088,-0.3413402736186981,-0.13714507222175598,-0.08499041944742203,-0.8036409020423889,0.3045041561126709,0.2164086103439331,0.0371587872505188,-0.0462820902466774,0.727317214012146,-0.5130751132965088,-2.476830244064331,0.2867144048213959,-0.5583012700080872,-11.982454299926758,1.0458221435546875,-1.6685595512390137,0.4950971305370331,-0.14357776939868927,-1.30441415309906,-1.9956018924713135,-0.5933684706687927,-0.021480392664670944,0.10787471383810043,-1.8596632480621338,0.26816147565841675,-0.2817520499229431,0.2620346248149872,-0.09979409724473953,0.5264625549316406,0.0468367338180542,-89.98014068603516,14.209931373596191,-39.513118743896484,1.5930464267730713,1.1834007501602173,0.04530593752861023,9.805192947387695,0.011474154889583588,0.3068663477897644
1.08,-0.36998695135116577,-0.11999763548374176,-0.04715639725327492,-1.085330605506897,0.24553577601909637,0.16727891564369202,0.04928203672170639,-0.02215985581278801,0.6984264850616455,-0.5102129578590393,-0.36998695135116577,-0.11999763548374176,-0.04715639725327492,-1.085330605506897,0.24553577601909637,0.16727891564369202,0.04928203672170639,-0.02215985581278801,0.6984264850616455,-0.5102129578590393,-1.1341218948364258,1.131650447845459,3.4750120639801025,-14.536308288574219,0.28038036823272705,-2.750701427459717,0.5502241253852844,1.1514641046524048,-1.7075220346450806,0.21351571381092072,-0.5535339117050171,-0.08756835758686066,0.09600133448839188,-1.6944479942321777,0.46779751777648926,-0.18667036294937134,0.2148844599723816,-0.1510542333126068,0.510022759437561,0.29646867513656616,-7.608426094055176,-1.5341204404830933,-1.902703046798706,1.4100391864776611,0.2688840627670288,-1.09888756275177,9.801283836364746,0.1866457611322403,0.3689235746860504
1.1,-0.3863169848918915,-0.10451732575893402,0.01188947819173336,-1.310790777206421,0.3250236213207245,0.12047966569662094,0.054958540946245193,-0.02888641133904457,0.6646509766578674,-0.5056149363517761,-0.3863169848918915,-0.10451732575893402,0.01188947819173336,-1.310790777206421,0.3250236213207245,0.12047966569662094,0.054958540946245193,-0.02888641133904457,0.6646509766578674,-0.5056149363517761,-0.6793009042739868,0.506014347076416,2.4007835388183594,-8.351995468139648,5.980120658874512,-1.989726185798645,0.15418335795402527,-1.6838715076446533,-1.761327862739563,0.10549496859312057,-0.516390860080719,-0.023535262793302536,0.06286536902189255,-1.6523263454437256,0.8088259696960449,-0.21576720476150513,0.2511935532093048,-0.05781902000308037,0.5396744608879089,0.4295821189880371,-5.57997989654541,-2.632209539413452,0.4264058768749237,0.8058437705039978,0.22509655356407166,-0.62473464012146,9.79460620880127,0.3683297038078308,0.4075820744037628
1.12,-0.39510485529899597,-0.093748077750206,0.04643629491329193,-1.4342015981674194,0.5375795960426331,0.08619608730077744,0.064552903175354,-0.028414061293005943,0.6376999616622925,-0.5028684139251709,-0.39510485529899597,-0.093748077750206,0.04643629491329193,-1.4342015981674194,0.5375795960426331,0.08619608730077744,0.064552903175354,-0.028414061293005943,0.6376999616622925,-0.5028684139251709,-0.33042603731155396,0.6015778183937073,1.1286215782165527,-4.645701885223389,12.750717163085938,-1.5982948541641235,0.6606014370918274,0.5712496042251587,-1.1706204414367676,0.05376796796917915,-0.7232464551925659,-0.09218375384807587,0.09883654862642288,-1.7630376815795898,0.9258503913879395,-0.2030741572380066,0.21791398525238037,-0.05503905564546585,0.5006585121154785,0.18574750423431396,-8.292985916137695,-1.0614053010940552,-1.461654543876648,0.5639590620994568,0.4415518343448639,-0.455874502658844,9.787440299987793,0.471368670463562,0.4689566493034363
1.14,-0.4142777919769287,-0.08794762194156647,0.06481563299894333,-1.5241355895996094,0.7498181462287903,0.05926123261451721,0.07352636009454727,-0.014589446596801281,0.6143263578414917,-0.5011334419250488,-0.4142777919769287,-0.08794762194156647,0.06481563299894333,-1.5241355895996094,0.7498181462287903,0.05926123261451721,0.07352636009454727,-0.014589446596801281,0.6143263578414917,-0.5011334419250488,-1.4213179349899292,0.07453639805316925,0.9486556649208069,-4.514969825744629,8.689590454101562,-1.2538352012634277,0.27463066577911377,0.8357459902763367,-1.2528342008590698,0.1461317539215088,-0.5148671865463257,-0.11733095347881317,0.06410142034292221,-1.777509093284607,0.918255090713501,-0.12602117657661438,0.16523237526416779,-0.06926089525222778,0.4996170103549957,0.0913081169128418,-8.849843978881836,-0.9877960085868835,-2.396015167236328,0.8135423064231873,0.14358575642108917,-0.08680243790149689,9.781826972961426,0.5279008746147156,0.522760808467865
1.16,-0.4340845048427582,-0.09019698202610016,0.07389698922634125,-1.6001020669937134,0.8563193678855896,0.0334625244140625,0.07763180881738663,-0.007945721037685871,0.5922210216522217,-0.4994683861732483,-0.4340845048427582,-0.09019698202610016,0.07389698922634125,-1.6001020669937134,0.8563193678855896,0.0334625244140625,0.07763180881738663,-0.007945721037685871,0.5922210216522217,-0.4994683861732483,-0.5634047985076904,-0.2547590136528015,-0.0037583874072879553,-3.269731044769287,3.1897075176239014,-1.1899040937423706,0.17960025370121002,0.029859844595193863,-0.826438844203949,-0.004748175386339426,-0.565148115158081,-0.08996351063251495,0.09885560721158981,-1.6784559488296509,1.1959590911865234,-0.16254359483718872,0.24332666397094727,-0.093489870429039,0.5337749719619751,0.07070934772491455,-8.509210586547852,-1.1265275478363037,-2.1333975791931152,0.325357586145401,0.10396844148635864,-0.283485472202301,9.778508186340332,0.5724668502807617,0.537728488445282
1.18,-0.44231659173965454,-0.09073520451784134,0.07585271447896957,-1.6417176723480225,1.000340461730957,0.013728895224630833,0.0841657891869545,-0.010271996259689331,0.5809537768363953,-0.5037137866020203,-0.44231659173965454,-0.09073520451784134,0.07585271447896957,-1.6417176723480225,1.000340461730957,0.013728895224630833,0.0841657891869545,-0.010271996259689331,0.5809537768363953,-0.5037137866020203,-0.3746536374092102,0.10263087600469589,0.27250343561172485,-1.005116581916809,9.233781814575195,-0.82831871509552,0.4107150733470917,-0.10059787333011627,-0.3242020308971405,-0.30157649517059326,-0.49299541115760803,-0.09616725146770477,0.15524405241012573,-1.6930959224700928,1.0453746318817139,-0.15126246213912964,0.2150753140449524,-0.058610763400793076,0.559600830078125,0.0039168596267700195,-9.37922477722168,-1.0582987070083618,-2.3977222442626953,0.06442681699991226,0.24907584488391876,-0.18292021751403809,9.773728370666504,0.6197918057441711,0.5711275339126587
1.2,-0.44759777188301086,-0.08901521563529968,0.09102322161197662,-1.6549125909805298,1.0646110773086548,-0.0031664506532251835,0.09168445318937302,-0.011380022391676903,0.5777406692504883,-0.5121508240699768,-0.44759777188301086,-0.08901521563529968,0.09102322161197662,-1.6549125909805298,1.0646110773086548,-0.0031664506532251835,0.09168445318937302,-0.011380022391676903,0.5777406692504883,-0.5121508240699768,-0.14333751797676086,0.04954878240823746,1.2530251741409302,-0.5760578513145447,-0.45390820503234863,-0.8468798995018005,0.3193346858024597,-0.05188179388642311,0.008857271634042263,-0.5487650036811829,-0.5641433000564575,-0.012216906994581223,0.11625700443983078,-1.6342918872833252,1.1053454875946045,-0.15657782554626465,0.21538357436656952,-0.09819387644529343,0.5490171909332275,0.1346975564956665,-7.108818054199219,-0.7173545360565186,-2.1332154273986816,-0.04089854285120964,0.14303748309612274,-0.3115428686141968,9.768224716186523,0.6672030091285706,0.6105175614356995
1.22,-0.45168423652648926,-0.08405786007642746,0.11446891725063324,-1.6572818756103516,1.0747864246368408,-0.01776040345430374,0.09897685050964355,-0.013851738534867764,0.5813173055648804,-0.5251070857048035,-0.45168423652648926,-0.08405786007642746,0.11446891725063324,-1.6572818756103516,1.0747864246368408,-0.01776040345430374,0.09897685050964355,-0.013851738534867764,0.5813173055648804,-0.5251070857048035,-0.30008742213249207,0.41205349564552307,0.8358153700828552,0.3102909028530121,1.204447865486145,-0.6634974479675293,0.39826643466949463,-0.1656217724084854,0.23066473007202148,-0.6764866709709167,-0.44861817359924316,-0.0775579959154129,-0.00528743676841259,-1.4215153455734253,1.4958305358886719,0.16236677765846252,0.21174107491970062,-0.07780908048152924,0.6766166687011719,0.19566655158996582,-8.89730167388916,-1.6394438743591309,-2.9320991039276123,-0.03306712210178375,0.16580626368522644,-0.22636641561985016,9.762517929077148,0.7212380766868591,0.6396571397781372
1.24,-0.4561865031719208,-0.0818544551730156,0.09988991916179657,-1.6183710098266602,1.23744797706604,-0.014834129251539707,0.10809174180030823,-0.029911907389760017,0.6034948229789734,-0.5430561900138855,-0.4561865031719208,-0.0818544551730156,0.09988991916179657,-1.6183710098266602,1.23744797706604,-0.014834129251539707,0.10809174180030823,-0.029911907389760017,0.6034948229789734,-0.5430561900138855,-0.0732964277267456,-0.08180756121873856,-2.0967464447021484,3.3974509239196777,12.185091972351074,0.7799069881439209,0.5535504817962646,-1.3194154500961304,1.7907867431640625,-1.2287060022354126,-0.6058951020240784,-0.023485373705625534,-0.048161283135414124,-1.2769482135772705,1.1945652961730957,-0.020994335412979126,0.26620402932167053,-0.1181708574295044,0.6830862164497375,0.6369177103042603,-5.08048152923584,-1.2507085800170898,-1.0867645740509033,-0.7939513921737671,0.2556132376194,0.19402389228343964,9.759780883789062,0.7211799025535583,0.6801999807357788
1.26,-0.459340900182724,-0.07838493585586548,0.04994867369532585,-1.534294843673706,1.2566370614359172,-0.003059585113078356,0.12068869173526764,-0.05164637789130211,0.6354265809059143,-0.572878360748291,-0.459340900182724,-0.07838493585586548,0.04994867369532585,-1.534294843673706,1.2698321342468262,-0.003059585113078356,0.12068869173526764,-0.05164637789130211,0.6354265809059143,-0.572878360748291,-0.2681640088558197,0.32718586921691895,-2.642383337020874,4.716784477233887,-3.348705768585205,0.4106791615486145,0.5973830819129944,-0.49269431829452515,1.5993666648864746,-1.3413238525390625,-0.5295006632804871,0.07310642302036285,-0.06487233936786652,-1.0921398401260376,0.8967100977897644,-0.09287083148956299,0.2813563346862793,-0.05359654128551483,0.6973812580108643,0.11896562576293945,-8.79143238067627,-1.1740827560424805,-3.799241542816162,-0.4424694776535034,0.26561635732650757,0.14463216066360474,9.758255004882812,0.670667290687561,0.7501775622367859
1.28,-0.4618695378303528,-0.06307580322027206,0.0030230532865971327,-1.4238343238830566,1.1060984134674072,-0.003937365487217903,0.13450269401073456,-0.05286459997296333,0.6626260280609131,-0.6000668406486511,-0.4618695378303528,-0.06307580322027206,0.0030230532865971327,-1.4238343238830566,1.1060984134674072,-0.003937365487217903,0.13450269401073456,-0.05286459997296333,0.6626260280609131,-0.6000668406486511,-0.045473113656044006,1.0319212675094604,-2.0993854999542236,6.133584499359131,-10.293191909790039,-0.3173936903476715,0.7094071507453918,0.22967958450317383,1.2500663995742798,-1.3992385864257812,-0.37661153078079224,0.14180047810077667,0.03417886793613434,-0.688766360282898,0.810151994228363,-0.07181799411773682,0.26451680064201355,-0.07463391870260239,0.6947400569915771,0.1909329891204834,-6.706222057342529,-1.2673453092575073,-3.183638572692871,0.16861099004745483,0.27999523282051086,-0.14814110100269318,9.753754615783691,0.6736931204795837,0.8040585517883301
1.3,-0.4541627764701843,-0.03660811856389046,-0.014770721085369587,-1.256459355354309,0.937617301940918,-0.013431004248559475,0.1479286402463913,-0.047444287687540054,0.6866474747657776,-0.6286532282829285,-0.4541627764701843,-0.03660811856389046,-0.014770721085369587,-1.256459355354309,0.937617301940918,-0.013431004248559475,0.1479286402463913,-0.047444287687540054,0.6866474747657776,-0.6286532282829285,0.6621407270431519,1.4408615827560425,0.3502900004386902,10.233088493347168,-6.747295379638672,-0.4556380808353424,0.5646024346351624,0.24530985951423645,1.2024905681610107,-1.453317642211914,-0.2479311227798462,0.10638873279094696,0.1428377479314804,-0.6733783483505249,0.41736677289009094,-0.024761557579040527,0.10286208242177963,-0.006360199302434921,0.7081243991851807,0.6622995138168335,-6.304200172424316,-2.12213397026062,-3.4450035095214844,0.30243006348609924,0.16398616135120392,-0.20182238519191742,9.747041702270508,0.7198792695999146,0.8444291949272156
1.32,-0.4397796094417572,-0.014960273168981075,0.023233983665704727,-1.0705794095993042,0.7088531851768494,-0.02344398759305477,0.1498005986213684,-0.0409974567592144,0.7100739479064941,-0.657584011554718,-0.4397796094417572,-0.014960273168981075,0.023233983665704727,-1.0705794095993042,0.7088531851768494,-0.02344398759305477,0.1498005986213684,-0.0409974567592144,0.7100739479064941,-0.657584011554718,0.8183037042617798,0.7924199104309082,3.2037081718444824,8.170635223388672,-13.949520111083984,-0.5336883664131165,-0.3015647530555725,0.36640483140945435,1.1856878995895386,-1.465898871421814,-0.12366378307342529,-0.03324307128787041,0.030416764318943024,-0.49090659618377686,0.17272067070007324,0.4090086817741394,-0.08609631657600403,-0.0955638736486435,0.9187254309654236,0.4234899878501892,-5.316155433654785,-1.48820161819458,-3.583888292312622,0.3264452815055847,-0.524620771408081,-0.21476119756698608,9.747239112854004,0.762009859085083,0.8042229413986206
1.34,-0.42178666591644287,-0.017731428146362305,0.061533477157354355,-0.9074431657791138,0.4324764609336853,-0.00786641612648964,0.1320570409297943,-0.05792897939682007,0.7648907899856567,-0.6823099255561829,-0.42178666591644287,-0.017731428146362305,0.061533477157354355,-0.9074431657791138,0.4324764609336853,-0.00786641612648964,0.1320570409297943,-0.05792897939682007,0.7648907899856567,-0.6823099255561829,1.1638736724853516,-0.6850554347038269,0.5521697402000427,8.281500816345215,-12.762287139892578,1.7213011980056763,-1.2385488748550415,-1.725612998008728,3.9409425258636475,-1.0614702701568604,0.055952221155166626,-0.11390537023544312,0.160183846950531,-0.5689606666564941,-0.2609267830848694,0.5835893750190735,-0.23285049200057983,-0.1604800969362259,0.8534886837005615,0.08418554067611694,-4.510699272155762,-1.3825193643569946,-2.433870315551758,-0.6822504997253418,-1.1420509815216064,0.2934797704219818,9.760809898376465,0.7489415407180786,0.6338515281677246
1.36,-0.3904403746128082,-0.03616843372583389,0.09124167263507843,-0.8033811450004578,0.3533637225627899,0.02911856211721897,0.09905966371297836,-0.10705355554819107,0.8403369784355164,-0.6936470866203308,-0.3904403746128082,-0.03616843372583389,0.09124167263507843,-0.8033811450004578,0.3533637225627899,0.02911856211721897,0.09905966371297836,-0.10705355554819107,0.8403369784355164,-0.6936470866203308,2.126248598098755,-1.2239327430725098,2.8930015563964844,2.388150691986084,11.479021072387695,1.9945894479751587,-1.8283259868621826,-3.023433208465576,3.598393678665161,-0.9744914174079895,-0.18407723307609558,-0.20036062598228455,0.07378634065389633,-0.553485095500946,-0.46144676208496094,0.4130675494670868,-0.13785144686698914,0.0020143650472164154,0.985321581363678,0.16453063488006592,-11.544157028198242,-4.908105373382568,-0.13436274230480194,-1.245241641998291,-1.3679983615875244,0.47093644738197327,9.779240608215332,0.6718586683273315,0.3887905776500702
1.38,-0.38963615894317627,-0.04857374727725983,0.07962801307439804,-0.8201459050178528,0.3738116919994354,0.06112709641456604,0.08645059913396835,-0.12950879335403442,0.8986255526542664,-0.6470672488212585,-0.38963615894317627,-0.04857374727725983,0.07962801307439804,-0.8201459050178528,0.3738116919994354,0.06112709641456604,0.08645059913396835,-0.12950879335403442,0.8986255526542664,-0.6470672488212585,0.8968834280967712,-0.9405040740966797,-0.8298018574714661,0.6866178512573242,0.10759249329566956,1.606458306312561,-0.536669135093689,0.6798422932624817,2.8999757766723633,3.90498685836792,-0.14853718876838684,-0.2802356481552124,0.12114063650369644,-0.6490861773490906,-0.7106612920761108,0.5460799336433411,-0.17601989209651947,-0.049836184829473495,1.1881377696990967,0.0384974479675293,-19.469980239868164,-0.9089417457580566,0.693025529384613,-1.0497148036956787,-0.507044792175293,0.03714212402701378,9.786042213439941,0.6162568926811218,0.2995183765888214
1.4,-0.3714585602283478,-0.07455527782440186,0.06790298223495483,-0.7960777282714844,0.37037521600723267,0.10543039441108704,0.06592446565628052,-0.11241728812456131,0.9706199169158936,-0.5360438227653503,-0.3714585602283478,-0.07455527782440186,0.06790298223495483,-0.7960777282714844,0.37037521600723267,0.10543039441108704,0.06592446565628052,-0.11241728812456131,0.9706199169158936,-0.5360438227653503,0.9720736742019653,-1.487390160560608,-0.3396521508693695,1.3894470930099487,-0.30052855610847473,2.5862653255462646,-1.349973201751709,0.7280600070953369,4.082016944885254,6.184004783630371,-0.21451124548912048,-0.2678501307964325,0.04526529461145401,-0.6542162895202637,-0.9057753086090088,0.4355015158653259,-0.10845416784286499,-0.05619140341877937,1.0855673551559448,-0.12981027364730835,-11.652864456176758,1.916424036026001,0.5599855780601501,-0.9859166145324707,-1.0197196006774902,0.20296508073806763,9.791900634765625,0.5753415822982788,0.15417921543121338
1.42,-0.3500504493713379,-0.10253958404064178,0.06463722884654999,-0.767051100730896,0.3622186779975891,0.14817114174365997,0.041576556861400604,-0.09411515295505524,1.033355474472046,-0.398078978061676,-0.3500504493713379,-0.10253958404064178,0.06463722884654999,-0.767051100730896,0.3622186779975891,0.14817114174365997,0.041576556861400604,-0.09411515295505524,1.033355474472046,-0.398078978061676,0.9701820015907288,-1.3123825788497925,-0.2614677846431732,1.3828566074371338,-0.49452605843544006,1.7428464889526367,-1.0741925239562988,1.045193076133728,2.254894256591797,6.265496253967285,-0.1948060244321823,-0.2132229208946228,0.01970972865819931,-0.6308735609054565,-1.0679031610488892,0.30911967158317566,0.01963946595788002,-0.04484899714589119,1.0967442989349365,-0.06978312134742737,-7.404019832611084,-0.8728997111320496,0.9493964910507202,-0.43230608105659485,-1.014171838760376,0.027096563950181007,9.793726921081543,0.5631917715072632,-0.04272013530135155
1.44,-0.32985779643058777,-0.12157200276851654,0.055571287870407104,-0.7387077808380127,0.34999173879623413,0.17391227185726166,0.030090488493442535,-0.06669588387012482,1.0655242204666138,-0.2834895849227905,-0.32985779643058777,-0.12157200276851654,0.055571287870407104,-0.7387077808380127,0.34999173879623413,0.17391227185726166,0.030090488493442535,-0.06669588387012482,1.0655242204666138,-0.2834895849227905,1.010094165802002,-0.6735041737556458,-0.7340307235717773,1.3889999389648438,-0.7138485908508301,0.9694251418113708,-0.202290877699852,1.4902384281158447,1.2199891805648804,5.207062721252441,-0.18223437666893005,-0.2519111633300781,0.02372007817029953,-0.6120795011520386,-0.7723994255065918,0.3084058165550232,-0.014765571802854538,0.006925654597580433,1.110983967781067,-0.22171446681022644,-6.7208051681518555,-0.10235322266817093,1.9321151971817017,-0.0217945147305727,-0.5407075881958008,-0.07521896064281464,9.791747093200684,0.5655919909477234,-0.19466586410999298
1.46,-0.31181684136390686,-0.1341102570295334,0.038215089589357376,-0.7125194668769836,0.34069162607192993,0.19037175178527832,0.025756746530532837,-0.03948524594306946,1.0831385850906372,-0.22490251064300537,-0.31181684136390686,-0.1341102570295334,0.038215089589357376,-0.7125194668769836,0.34069162607192993,0.19037175178527832,0.025756746530532837,-0.03948524594306946,1.0831385850906372,-0.22490251064300537,0.8284693956375122,-0.618299663066864,-0.8352040648460388,1.272919774055481,-0.1533137559890747,0.7603766322135925,-0.26392775774002075,1.406623125076294,0.5944949984550476,0.6184614896774292,-0.11228734254837036,-0.21306100487709045,0.018741615116596222,-0.5992324352264404,-0.5599164962768555,0.2982393205165863,-0.05010304972529411,0.0029621392022818327,1.126058578491211,-0.3077673614025116,-4.931338310241699,0.30878737568855286,1.6782914400100708,0.18753455579280853,-0.4608248472213745,0.003205343149602413,9.789083480834961,0.572215735912323,-0.2872386872768402
1.48,-0.2952606678009033,-0.14236034452915192,0.032294947654008865,-0.6908364295959473,0.33758440613746643,0.20274464786052704,0.01992504857480526,-0.01922616735100746,1.0936217308044434,-0.254410058259964,-0.2952606678009033,-0.14236034452915192,0.032294947654008865,-0.6908364295959473,0.33758440613746643,0.20274464786052704,0.01992504857480526,-0.01922616735100746,1.0936217308044434,-0.254410058259964,0.8959780335426331,-0.2673812508583069,-0.02830704115331173,0.9436712265014648,-0.26502856612205505,0.5066318511962891,-0.3624103367328644,0.605774998664856,0.517145574092865,-2.4323747158050537,-0.16540682315826416,-0.18807128071784973,0.006503023207187653,-0.5739731788635254,0.21643680334091187,0.36179736256599426,-0.03492152318358421,0.050949689000844955,1.1185908317565918,-0.18077492713928223,-7.745347023010254,1.1430511474609375,3.2352499961853027,0.09010510891675949,-0.224511981010437,-0.16488121449947357,9.786216735839844,0.5809999704360962,-0.3584709167480469
1.5,-0.2801128029823303,-0.14574047923088074,0.029565392062067986,-0.6746442317962646,0.33424630761146545,0.21701520681381226,0.014356737956404686,-0.0020840356592088938,1.1012983322143555,-0.2380979210138321,-0.2801128029823303,-0.14574047923088074,0.029565392062067986,-0.6746442317962646,0.33424630761146545,0.21701520681381226,0.014356737956404686,-0.0020840356592088938,1.1012983322143555,-0.2380979210138321,0.6372300386428833,-0.09071534872055054,-0.21739277243614197,0.6746385097503662,-0.09603395313024521,0.8497592210769653,-0.20488975942134857,1.1710201501846313,0.27384114265441895,2.584928035736084,-0.1477816104888916,-0.17411310970783234,-0.013381682336330414,-0.5782438516616821,0.20224332809448242,0.3945809006690979,-0.12528714537620544,0.0903778225183487,1.1476880311965942,-0.20042338967323303,-7.1813130378723145,0.29176777601242065,2.980750322341919,-0.07621537894010544,-0.007137831766158342,-0.0398632287979126,9.784077644348145,0.6033567786216736,-0.3793322443962097
1.52,-0.2679951786994934,-0.14806735515594482,0.022937076166272163,-0.6645623445510864,0.3343617916107178,0.23484817147254944,0.005243344232439995,0.02284828945994377,1.1099731922149658,-0.21127864718437195,-0.2679951786994934,-0.14806735515594482,0.022937076166272163,-0.6645623445510864,0.3343617916107178,0.23484817147254944,0.005243344232439995,0.02284828945994377,1.1099731922149658,-0.21127864718437195,0.6154899597167969,-0.11967557668685913,-0.42160123586654663,0.39882683753967285,0.07568822801113129,0.913079559803009,-0.6710641384124756,1.3681772947311401,0.5771857500076294,0.4968380630016327,-0.16492509841918945,-0.20916058123111725,-0.05557684600353241,-0.5448148846626282,0.2160452902317047,0.45735734701156616,-0.09175340831279755,0.12067736685276031,1.1390659809112549,-0.34288662672042847,-7.77179479598999,0.4244910478591919,3.499007225036621,-0.2975296676158905,0.07623418420553207,-0.07453910261392593,9.783761978149414,0.614939272403717,-0.36871442198753357
1.54,-0.25633686780929565,-0.1491219848394394,0.00873746257275343,-0.6566696166992188,0.3360065519809723,0.25590845942497253,-0.007187302224338055,0.055060431361198425,1.1202605962753296,-0.258769690990448,-0.25633686780929565,-0.1491219848394394,0.00873746257275343,-0.6566696166992188,0.3360065519809723,0.25590845942497253,-0.007187302224338055,0.055060431361198425,1.1202605962753296,-0.258769690990448,0.5683358907699585,-0.006278743501752615,-0.9594523906707764,0.4301382303237915,0.06273499131202698,1.1831783056259155,-0.5645568370819092,1.7700810432434082,0.3512122929096222,-3.8417415618896484,-0.39348673820495605,-0.15424039959907532,-0.1413809210062027,-0.5726734399795532,-0.7720650434494019,0.06399339437484741,-0.0037560611963272095,0.04138994961977005,0.7385640740394592,-0.3350728750228882,-8.487025260925293,-0.27950283885002136,3.283632278442383,-0.6286730766296387,0.32286950945854187,0.04509352147579193,9.784838676452637,0.6239957213401794,-0.3219676613807678
1.56,-0.24826283752918243,-0.1467716544866562,-0.029871443286538124,-0.6547638773918152,0.3326491713523865,0.25991111993789673,-0.014448435977101326,0.0788813903927803,1.060937523841858,-0.30187472701072693,-0.24826283752918243,-0.1467716544866562,-0.029871443286538124,-0.6547638773918152,0.3326491713523865,0.25991111993789673,-0.014448435977101326,0.0788813903927803,1.060937523841858,-0.30187472701072693,0.052552781999111176,0.23634755611419678,-2.965496063232422,-0.24031944572925568,-0.3079189658164978,-0.5662530660629272,-0.11836770921945572,0.4019281566143036,-5.675363063812256,-1.3862360715866089,-0.5120446681976318,-0.03983714058995247,-0.13125267624855042,-0.5904998779296875,-0.5310423374176025,0.001503586769104004,0.0978831946849823,-0.019947651773691177,0.45117154717445374,-0.2645372450351715,-5.861957550048828,-1.6676570177078247,2.518052577972412,0.01034500077366829,0.6065284609794617,0.0012854128144681454,9.787117004394531,0.6303314566612244,-0.2260856032371521
1.58,-0.2573608160018921,-0.13390375673770905,-0.07766211032867432,-0.6616904139518738,0.3226540982723236,0.23901131749153137,-0.009500139392912388,0.0652921125292778,0.9354368448257446,-0.3425094485282898,-0.2573608160018921,-0.13390375673770905,-0.07766211032867432,-0.6616904139518738,0.3226540982723236,0.23901131749153137,-0.009500139392912388,0.0652921125292778,0.9354368448257446,-0.3425094485282898,-0.9070813059806824,0.8391347527503967,-1.7310987710952759,-0.3265656530857086,-0.9083695411682129,-1.7894937992095947,0.29633384943008423,-1.6124159097671509,-4.297804832458496,-7.294699192047119,-0.44977593421936035,-0.03722134605050087,-0.06446900963783264,-1.413972020149231,-0.15152859687805176,-0.15438508987426758,0.1225801408290863,-0.12302321940660477,0.378000944852829,-0.15199261903762817,-17.783180236816406,-6.789432048797607,-1.2882176637649536,0.9713181853294373,0.9480469226837158,0.475209504365921,9.792472839355469,0.5820504426956177,-0.06925193965435028
1.6,-0.29483547806739807,-0.11773219704627991,-0.09324412047863007,-0.7536987066268921,0.3120095133781433,0.18826453387737274,-0.004750601947307587,0.015084018930792809,0.828032374382019,-0.42903196811676025,-0.29483547806739807,-0.11773219704627991,-0.09324412047863007,-0.7536987066268921,0.3120095133781433,0.18826453387737274,-0.004750601947307587,0.015084018930792809,0.828032374382019,-0.42903196811676025,-2.3711142539978027,0.8217452764511108,-0.017265684902668,-8.786528587341309,-0.06548204272985458,-3.1044483184814453,0.37657779455184937,-3.278315544128418,-6.4360504150390625,0.017737330868840218,-0.586196780204773,0.003475148230791092,0.005520984530448914,-1.693554401397705,0.1266871988773346,-0.25868892669677734,0.20733171701431274,-0.13393694162368774,0.4539843201637268,0.12351751327514648,0.3890182375907898,2.26101016998291,0.23464037477970123,1.5064048767089844,0.9151735901832581,0.4645899832248688,9.798845291137695,0.45924273133277893,0.08843378722667694
1.62,-0.34156274795532227,-0.09920188784599304,-0.0744977742433548,-0.9738157391548157,0.28639402985572815,0.12818031013011932,0.00978075247257948,-0.04525967687368393,0.7224867343902588,-0.5300270915031433,-0.34156274795532227,-0.09920188784599304,-0.0744977742433548,-0.9738157391548157,0.28639402985572815,0.12818031013011932,0.00978075247257948,-0.04525967687368393,0.7224867343902588,-0.5300270915031433,-2.1627557277679443,1.0040879249572754,1.6091769933700562,-12.23276424407959,-1.8640868663787842,-2.8629283905029297,1.0077035427093506,-2.566716194152832,-4.537274360656738,-4.9823689460754395,-0.6822755932807922,0.021835554391145706,0.011647038161754608,-1.8528432846069336,0.5175653696060181,-0.4216175675392151,0.2660965323448181,-0.09083372354507446,0.45194000005722046,0.4197345972061157,-3.8704960346221924,0.8245027661323547,-1.5076262950897217,0.9719004034996033,1.1742116212844849,0.12046502530574799,9.797146797180176,0.41126957535743713,0.28786763548851013
1.64,-0.36511602997779846,-0.08713929355144501,-0.032419998198747635,-1.2207266092300415,0.34171849489212036,0.08738455176353455,0.022123802453279495,-0.04106658324599266,0.6854139566421509,-0.5454025268554688,-0.36511602997779846,-0.08713929355144501,-0.032419998198747635,-1.2207266092300415,0.34171849489212036,0.08738455176353455,0.022123802453279495,-0.04106658324599266,0.6854139566421509,-0.5454025268554688,-0.9005908966064453,0.8679867386817932,2.2325429916381836,-12.224403381347656,7.544925212860107,-2.4606738090515137,0.6608401536941528,1.447167158126831,-1.934890627861023,0.5561825037002563,-0.6348891854286194,0.027480650693178177,0.053910620510578156,-1.7001327276229858,0.5824578404426575,-0.25055205821990967,0.19355455040931702,-0.1626964509487152,0.4696172773838043,0.3908137083053589,-12.251394271850586,-2.944643259048462,-3.2130472660064697,1.4334173202514648,0.3777904510498047,-0.8797764182090759,9.788944244384766,0.5037893652915955,0.3985872268676758
1.66,-0.3864087462425232,-0.06865787506103516,0.002929574577137828,-1.4044291973114014,0.4653664827346802,0.04345463588833809,0.03251509368419647,-0.039972562342882156,0.6437998414039612,-0.5330058336257935,-0.3864087462425232,-0.06865787506103516,0.002929574577137828,-1.4044291973114014,0.4653664827346802,0.04345463588833809,0.03251509368419647,-0.039972562342882156,0.6437998414039612,-0.5330058336257935,-1.1835886240005493,0.9635536670684814,1.5331064462661743,-6.565450668334961,5.1521406173706055,-1.9184504747390747,0.38485008478164673,-1.8684626817703247,-2.1441900730133057,0.3926747739315033,-0.5690038800239563,-0.03820101544260979,0.010520212352275848,-1.7314887046813965,0.6965977549552917,-0.2686185836791992,0.1833961457014084,-0.16298557817935944,0.43723264336586,0.35876214504241943,-5.928513050079346,-2.770303726196289,-0.21398386359214783,1.342326045036316,0.47357630729675293,-0.32991528511047363,9.778182983398438,0.6397973895072937,0.46249791979789734
1.68,-0.4057750701904297,-0.05768555775284767,0.01747342012822628,-1.5081241130828857,0.5787510275840759,0.007320614531636238,0.04002813994884491,-0.06704580783843994,0.6023615002632141,-0.5181850790977478,-0.4057750701904297,-0.05768555775284767,0.01747342012822628,-1.5081241130828857,0.5787510275840759,0.007320614531636238,0.04002813994884491,-0.06704580783843994,0.6023615002632141,-0.5181850790977478,-0.8415480256080627,0.2874467968940735,0.09544161707162857,-4.398300647735596,5.584753036499023,-1.8250104188919067,0.40622013807296753,-1.5892736911773682,-2.182655096054077,-0.4989182651042938,-0.605122447013855,-0.049642037600278854,0.03381006419658661,-1.7654931545257568,0.8196225166320801,-0.29621320962905884,0.21630437672138214,-0.16138257086277008,0.4196062386035919,0.34934282302856445,-5.2883100509643555,-1.8740378618240356,-0.6827659606933594,0.9134469628334045,0.4002896845340729,-0.2232915759086609,9.770590782165527,0.6980381608009338,0.5332889556884766
1.7,-0.4210846722126007,-0.054398778825998306,0.01818148046731949,-1.5848101377487183,0.6979039907455444,-0.024396102875471115,0.0488605760037899,-0.07286174595355988,0.5638686418533325,-0.5107428431510925,-0.4210846722126007,-0.054398778825998306,0.01818148046731949,-1.5848101377487183,0.6979039907455444,-0.024396102875471115,0.0488605760037899,-0.07286174595355988,0.5638686418533325,-0.5107428431510925,-0.7924709320068359,0.1734289973974228,0.11356061697006226,-3.471423864364624,5.82328987121582,-1.5487529039382935,0.49218571186065674,-0.32549265027046204,-2.005699872970581,0.5546724796295166,-0.6667906641960144,-0.08244796097278595,0.10509170591831207,-1.8127541542053223,0.9223538637161255,-0.30538880825042725,0.21091173589229584,-0.14175915718078613,0.424479216337204,0.203399658203125,-4.906268119812012,-1.5308268070220947,-0.7825993895530701,0.6467830538749695,0.3136398494243622,-0.15874360501766205,9.764081954956055,0.741686224937439,0.5905163884162903
1.72,-0.44008615612983704,-0.05296282097697258,0.031455159187316895,-1.6498029232025146,0.8119360208511353,-0.05251011252403259,0.05703862011432648,-0.07633768767118454,0.5269255042076111,-0.49986082315444946,-0.44008615612983704,-0.05296282097697258,0.031455159187316895,-1.6498029232025146,0.8119360208511353,-0.05251011252403259,0.05703862011432648,-0.07633768767118454,0.5269255042076111,-0.49986082315444946,-1.0581892728805542,0.00868969690054655,1.2706650495529175,-3.0851638317108154,5.317405700683594,-1.3376785516738892,0.35573288798332214,-0.15277236700057983,-1.7687551975250244,0.4671322703361511,-0.6365041732788086,-0.10290785133838654,0.06711017340421677,-1.7181097269058228,0.9743493795394897,-0.2252940535545349,0.22233213484287262,-0.15025047957897186,0.4491828978061676,0.20499110221862793,-4.491171360015869,-0.9077053666114807,-0.8526602983474731,0.5887351036071777,0.17937226593494415,-0.058533377945423126,9.759384155273438,0.766952395439148,0.6342810392379761
1.74,-0.45913246273994446,-0.05587151274085045,0.05167941376566887,-1.6872014999389648,0.8982523083686829,-0.07364071160554886,0.06500614434480667,-0.08377020061016083,0.500999391078949,-0.494397908449173,-0.45913246273994446,-0.05587151274085045,0.05167941376566887,-1.6872014999389648,0.8982523083686829,-0.07364071160554886,0.06500614434480667,-0.08377020061016083,0.500999391078949,-0.494397908449173,-0.8503819108009338,-0.2389332503080368,0.5938149094581604,-0.8293920159339905,3.604764223098755,-0.8327129483222961,0.48509618639945984,-0.6412078142166138,-0.9512647986412048,0.02293531782925129,-0.6561641693115234,-0.10256500542163849,0.0695057064294815,-1.7021703720092773,1.0490832328796387,-0.22717952728271484,0.21413415670394897,-0.1380799263715744,0.45468273758888245,0.1892911195755005,-4.962376117706299,-1.0304657220840454,-0.6867201924324036,0.19956272840499878,0.24751076102256775,0.012676049955189228,9.756210327148438,0.7772166132926941,0.6696234941482544
1.76,-0.4749363958835602,-0.06200177222490311,0.060024090111255646,-1.6946927309036255,0.9727862477302551,-0.08765538036823273,0.07458062469959259,-0.08515258133411407,0.4877888560295105,-0.49566569924354553,-0.4749363958835602,-0.06200177222490311,0.060024090111255646,-1.6946927309036255,0.9727862477302551,-0.08765538036823273,0.07458062469959259,-0.08515258133411407,0.4877888560295105,-0.49566569924354553,-0.7801943421363831,-0.317065954208374,0.3479405343532562,-0.11967783421278,3.6186487674713135,-0.654792308807373,0.4530991017818451,0.07162754237651825,-0.5007202625274658,-0.1415742188692093,-0.7131285667419434,-0.06518365442752838,0.09827148169279099,-1.653631329536438,1.1281687021255493,-0.19984954595565796,0.23073549568653107,-0.10874444246292114,0.4714435040950775,0.2278609275817871,-8.011312484741211,-1.2533671855926514,-2.4418578147888184,0.07406080514192581,0.20760007202625275,-0.011923572979867458,9.752883911132812,0.7779365181922913,0.7156623005867004
1.78,-0.4931611716747284,-0.06448209285736084,0.07097134739160538,-1.6893099546432495,1.0488163232803345,-0.098237544298172,0.0839107409119606,-0.08194412291049957,0.4825398623943329,-0.501732349395752,-0.4931611716747284,-0.06448209285736084,0.07097134739160538,-1.6893099546432495,1.0488163232803345,-0.098237544298172,0.0839107409119606,-0.08194412291049957,0.4825398623943329,-0.501732349395752,-1.0164848566055298,0.01630130410194397,0.7384194731712341,0.6087211966514587,3.7430644035339355,-0.4479821026325226,0.4633289575576782,0.245376855134964,-0.09103559702634811,-0.42327558994293213,-0.6310200095176697,-0.046863358467817307,0.02015155553817749,-1.5308029651641846,1.1017632484436035,-0.17695856094360352,0.2587185502052307,-0.10944516956806183,0.49167290329933167,0.2397913932800293,-7.906512260437012,-1.4434345960617065,-2.3961381912231445,0.2000732719898224,0.19466881453990936,0.06821732968091965,9.750313758850098,0.775549590587616,0.7523300647735596
1.8,-0.5080571174621582,-0.0634765774011612,0.07180659472942352,-1.6583884954452515,1.086320400238037,-0.1071709617972374,0.09533393383026123,-0.07869953662157059,0.48522278666496277,-0.5133369565010071,-0.5080571174621582,-0.0634765774011612,0.07180659472942352,-1.6583884954452515,1.086320400238037,-0.1071709617972374,0.09533393383026123,-0.07869953662157059,0.48522278666496277,-0.5133369565010071,-0.5281004905700684,0.06554485112428665,-0.7275063395500183,2.294010639190674,0.7006914019584656,-0.40071991086006165,0.6696643829345703,0.05918106436729431,0.3510458767414093,-0.7214747667312622,-0.6547611951828003,0.02274187281727791,-0.10037858784198761,-1.4871582984924316,1.1581060886383057,-0.2301185131072998,0.29670286178588867,-0.09777163714170456,0.4936386048793793,0.25343406200408936,-8.096280097961426,-1.7280102968215942,-2.2754149436950684,0.016725625842809677,0.3111468255519867,-0.05077101290225983,9.746634483337402,0.7775225639343262,0.7966606020927429
1.82,-0.5171318054199219,-0.05792813375592232,0.035617463290691376,-1.610173225402832,1.1155074834823608,-0.11682455241680145,0.11151763796806335,-0.07577945291996002,0.4933481514453888,-0.5296475887298584,-0.5171318054199219,-0.05792813375592232,0.035617463290691376,-1.610173225402832,1.1155074834823608,-0.11682455241680145,0.11151763796806335,-0.07577945291996002,0.4933481514453888,-0.5296475887298584,-0.4610918462276459,0.45944246649742126,-2.8425896167755127,2.419167995452881,1.8614903688430786,-0.5615370273590088,0.9089959859848022,0.2441999912261963,0.41266027092933655,-0.8656473159790039,-0.7298294305801392,0.1039794534444809,-0.12139980494976044,-1.3680620193481445,1.0344407558441162,-0.1970219612121582,0.30881863832473755,-0.08188469707965851,0.5196307301521301,0.27878403663635254,-8.244952201843262,-2.1422953605651855,-2.9644775390625,0.1360170841217041,0.459913045167923,-0.11753225326538086,9.738907814025879,0.7956743836402893,0.8698750734329224
1.84,-0.5310587882995605,-0.04163189232349396,-0.02488727867603302,-1.5518563985824585,1.092408537864685,-0.12551084160804749,0.1306801438331604,-0.06745714694261551,0.5044263601303101,-0.5491101741790771,-0.5310587882995605,-0.04163189232349396,-0.02488727867603302,-1.5518563985824585,1.092408537864685,-0.12551084160804749,0.1306801438331604,-0.06745714694261551,0.5044263601303101,-0.5491101741790771,-0.8751904368400574,1.0610958337783813,-2.970391035079956,3.370436429977417,-2.7519495487213135,-0.34569892287254333,0.948455810546875,0.545566976070404,0.6492253541946411,-1.0489829778671265,-0.5428743362426758,0.17920495569705963,-0.07005853950977325,-1.1460509300231934,0.9936181902885437,-0.14369729161262512,0.31191766262054443,-0.10256446152925491,0.5835338830947876,0.21267592906951904,-7.273252010345459,-2.0625100135803223,-3.162522077560425,0.4384508728981018,0.49380603432655334,0.0852382555603981,9.729713439941406,0.8052552938461304,0.959341287612915
1.86,-0.5398404002189636,-0.013984670862555504,-0.06718969345092773,-1.458166241645813,1.0399668216705322,-0.13232047855854034,0.15035130083560944,-0.06636641919612885,0.5228879451751709,-0.5735252499580383,-0.5398404002189636,-0.013984670862555504,-0.06718969345092773,-1.458166241645813,1.0399668216705322,-0.13232047855854034,0.15035130083560944,-0.06636641919612885,0.5228879451751709,-0.5735252499580383,-0.0845429077744484,1.56523597240448,-1.224789023399353,5.729218006134033,-2.3129916191101074,-0.2649020850658417,0.9758830070495605,-0.675254225730896,1.1767555475234985,-1.4724211692810059,-0.3825078010559082,0.20125031471252441,0.06080068647861481,-0.8070222735404968,0.6469901204109192,-0.09841758012771606,0.19290481507778168,-0.0738070011138916,0.6692574620246887,0.15021920204162598,-4.243991851806641,-1.00264310836792,-1.9189611673355103,0.3347233533859253,0.5114943385124207,-0.03543535992503166,9.720136642456055,0.8100293874740601,1.0482819080352783
1.88,-0.5313137173652649,0.01611289195716381,-0.055488865822553635,-1.305482029914856,0.8770085573196411,-0.13482381403446198,0.16357600688934326,-0.07189550995826721,0.5573148131370544,-0.6033615469932556,-0.5313137173652649,0.01611289195716381,-0.055488865822553635,-1.305482029914856,0.8770085573196411,-0.13482381403446198,0.16357600688934326,-0.07189550995826721,0.5573148131370544,-0.6033615469932556,0.8103346824645996,1.412768006324768,2.282208204269409,9.112479209899902,-11.17475700378418,-0.0024820470716804266,0.3237864077091217,-0.12803992629051208,2.1265058517456055,-1.4995415210723877,-0.10126155614852905,0.17248575389385223,0.16983036696910858,-0.5181376934051514,0.24624505639076233,0.3498217761516571,0.018508121371269226,-0.06782487034797668,0.8475719094276428,-0.05972757935523987,-4.063266277313232,-0.9631311297416687,-2.9101319313049316,0.26306822896003723,0.046360038220882416,-0.16136804223060608,9.712066650390625,0.8352752327919006,1.1018929481506348
1.9,-0.5068766474723816,0.03504543378949165,0.0181699451059103,-1.0978140830993652,0.5794670581817627,-0.1134381890296936,0.16048119962215424,-0.07688262313604355,0.6311635971069336,-0.6328485608100891,-0.5068766474723816,0.03504543378949165,0.0181699451059103,-1.0978140830993652,0.5794670581817627,-0.1134381890296936,0.16048119962215424,-0.07688262313604355,0.6311635971069336,-0.6328485608100891,1.7573357820510864,0.6133259534835815,4.854413032531738,11.216114044189453,-16.260717391967773,1.896748423576355,-0.5292131304740906,-0.29754722118377686,4.952969074249268,-1.291677713394165,-0.027111738920211792,-0.043663572520017624,0.08280502259731293,-0.499632328748703,0.02719283103942871,0.5657196640968323,-0.16109441220760345,-0.11143472790718079,0.7831848859786987,-0.06566861271858215,-4.6496100425720215,-1.7108608484268188,-3.4038851261138916,-0.40380609035491943,-0.6443364024162292,0.12663237750530243,9.718749046325684,0.8351192474365234,1.041439175605774
1.92,-0.47030723094940186,0.025124147534370422,0.08675487339496613,-0.9024606943130493,0.28954169154167175,-0.06851930171251297,0.13457399606704712,-0.09610258787870407,0.725977897644043,-0.6532528400421143,-0.47030723094940186,0.025124147534370422,0.08675487339496613,-0.9024606943130493,0.28954169154167175,-0.06851930171251297,0.13457399606704712,-0.09610258787870407,0.725977897644043,-0.6532528400421143,1.8556410074234009,-1.197142243385315,1.8646975755691528,8.481402397155762,-12.689634323120117,2.3761816024780273,-1.698387622833252,-1.381603479385376,4.414246559143066,-1.3832976818084717,-0.02528369426727295,-0.19444704055786133,0.09501411020755768,-0.5426207780838013,-0.41349107027053833,0.6672616600990295,-0.18688878417015076,0.03370320424437523,0.8222916126251221,0.28934842348098755,-4.981147289276123,-4.58760404586792,-3.567014217376709,-1.0022647380828857,-1.5262452363967896,0.5135382413864136,9.744702339172363,0.7626822590827942,0.8337863087654114
1.94,-0.43570828437805176,-0.008259866386651993,0.11151013523340225,-0.7978951930999756,0.22728019952774048,-0.015859397128224373,0.1027827188372612,-0.08920245617628098,0.8054830431938171,-0.668735921382904,-0.43570828437805176,-0.008259866386651993,0.11151013523340225,-0.7978951930999756,0.22728019952774048,-0.015859397128224373,0.1027827188372612,-0.08920245617628098,0.8054830431938171,-0.668735921382904,1.9183567762374878,-2.174483299255371,1.2862528562545776,2.5213820934295654,13.720948219299316,2.8599095344543457,-1.3145625591278076,1.8479467630386353,3.56378436088562,-0.23012356460094452,-0.18179714679718018,-0.32190755009651184,0.07465673238039017,-0.5872771739959717,-0.8261767625808716,0.5553362369537354,-0.19818015396595,0.07524709403514862,1.0392889976501465,0.09451627731323242,-11.490889549255371,-4.621967792510986,-0.42948117852211,-1.3536134958267212,-1.644925832748413,1.1477954387664795,9.778911590576172,0.5810516476631165,0.5209327936172485
1.96,-0.4370599687099457,-0.03833664208650589,0.11343573778867722,-0.7870251536369324,0.32922643423080444,0.04059503227472305,0.08728277683258057,-0.04629124328494072,0.8733410835266113,-0.6342852711677551,-0.4370599687099457,-0.03833664208650589,0.11343573778867722,-0.7870251536369324,0.32922643423080444,0.04059503227472305,0.08728277683258057,-0.04629124328494072,0.8733410835266113,-0.6342852711677551,-0.15735802054405212,-1.3683677911758423,-0.895138144493103,-0.4090796709060669,0.20295481383800507,2.2515437602996826,-0.6995905041694641,1.6280146837234497,3.6666312217712402,3.0480575561523438,-0.15573672950267792,-0.3466533124446869,0.1259123980998993,-0.6585924625396729,-1.1104291677474976,0.619086742401123,-0.17965756356716156,-0.03703925386071205,1.1440017223358154,0.005683958530426025,-26.034374237060547,5.0015974044799805,2.836193561553955,-1.1028151512145996,-0.7692970633506775,0.5953184366226196,9.800163269042969,0.3267216384410858,0.2935083508491516
1.98,-0.42388513684272766,-0.07507749646902084,0.09412499517202377,-0.7732565999031067,0.32991307973861694,0.09297260642051697,0.06256026029586792,-0.038982924073934555,0.9521604776382446,-0.5127397775650024,-0.42388513684272766,-0.07507749646902084,0.09412499517202377,-0.7732565999031067,0.32991307973861694,0.09297260642051697,0.06256026029586792,-0.038982924073934555,0.9521604776382446,-0.5127397775650024,1.0180202722549438,-1.9824016094207764,-0.878989577293396,1.1543047428131104,-0.0953671857714653,2.8783140182495117,-1.4175031185150146,-0.5940164923667908,4.042675495147705,6.191770076751709,-0.18987053632736206,-0.28021109104156494,0.04872826486825943,-0.659561038017273,-1.1549103260040283,0.43116235733032227,-0.08530719578266144,-0.04941254481673241,1.1092787981033325,-0.1356716752052307,-12.326398849487305,1.963598370552063,0.1484968662261963,-1.7094128131866455,-1.1645798683166504,0.19637511670589447,9.806066513061523,0.26020583510398865,0.09722014516592026
2.0,-0.3977642059326172,-0.10861088335514069,0.08182186633348465,-0.7475544810295105,0.3242075443267822,0.13922132551670074,0.03851601108908653,-0.044105906039476395,1.0168956518173218,-0.3804498016834259,-0.3977642059326172,-0.10861088335514069,0.08182186633348465,-0.7475544810295105,0.3242075443267822,0.13922132551670074,0.03851601108908653,-0.044105906039476395,1.0168956518173218,-0.3804498016834259,1.348008632659912,-1.3815882205963135,-0.6357577443122864,1.2202179431915283,-0.41233623027801514,1.8441457748413086,-0.9465395212173462,-0.027100052684545517,2.534660577774048,6.438422679901123,-0.1833326667547226,-0.24279528856277466,0.009775660932064056,-0.6173688769340515,-1.1715197563171387,0.32463499903678894,-0.01724919304251671,-0.03630902245640755,1.1378153562545776,-0.09863114356994629,-6.370163440704346,0.05244043841958046,1.5940886735916138,-1.226380467414856,-0.8950015902519226,-0.1796610802412033,9.805781364440918,0.26741066575050354,-0.10599822551012039
2.02,-0.3702419400215149,-0.1299608051776886,0.06225096434354782,-0.7234814167022705,0.31562045216560364,0.1681862473487854,0.026934104040265083,-0.039614468812942505,1.057499885559082,-0.2613637149333954,-0.3702419400215149,-0.1299608051776886,0.06225096434354782,-0.7234814167022705,0.31562045216560364,0.1681862473487854,0.026934104040265083,-0.039614468812942505,1.057499885559082,-0.2613637149333954,1.3696972131729126,-0.835015058517456,-1.3117527961730957,1.1835885047912598,-0.41733184456825256,1.1733094453811646,-0.3171723186969757,0.34040188789367676,1.7166167497634888,5.343494415283203,-0.1297072172164917,-0.27728980779647827,0.020369671285152435,-0.5968769788742065,-0.7826828956604004,0.27872389554977417,-0.007753308862447739,0.0006193637382239103,1.0941475629806519,-0.20538446307182312,-5.6817145347595215,0.19781455397605896,2.1364641189575195,-0.7925050854682922,-0.4735107421875,-0.2885901927947998,9.802125930786133,0.31683793663978577,-0.2324501872062683
2.04,-0.3423594832420349,-0.14414170384407043,0.03740301728248596,-0.6993096470832825,0.312994122505188,0.18493279814720154,0.021979549899697304,-0.029033595696091652,1.07746160030365,-0.20752057433128357,-0.3423594832420349,-0.14414170384407043,0.03740301728248596,-0.6993096470832825,0.312994122505188,0.18493279814720154,0.021979549899697304,-0.029033595696091652,1.07746160030365,-0.20752057433128357,1.3882840871810913,-0.6467949748039246,-1.065781593322754,1.2292275428771973,0.16913501918315887,0.6521800756454468,-0.22561699151992798,0.7830272912979126,0.41174033284187317,0.5480619072914124,-0.13681232929229736,-0.2535579204559326,0.02711775153875351,-0.5731732845306396,-0.6875760555267334,0.2473648637533188,-0.05268002673983574,0.009432104416191578,1.0962653160095215,-0.2994776666164398,-4.951022148132324,0.3048781752586365,1.530316948890686,-0.46789270639419556,-0.37388530373573303,-0.3259245753288269,9.79783821105957,0.381110280752182,-0.30533477663993835
2.06,-0.31854623556137085,-0.15416818857192993,0.025773975998163223,-0.6800228953361511,0.31639012694358826,0.19535177946090698,0.016075586900115013,-0.014604832977056503,1.0817433595657349,-0.2409871220588684,-0.31854623556137085,-0.15416818857192993,0.025773975998163223,-0.6800228953361511,0.31639012694358826,0.19535177946090698,0.016075586900115013,-0.014604832977056503,1.0817433595657349,-0.2409871220588684,1.047654390335083,-0.36644241213798523,-0.28558841347694397,0.6961761713027954,-0.07338018715381622,0.37298962473869324,-0.37256887555122375,0.5913355946540833,0.10659376531839371,-2.718458890914917,-0.1621820032596588,-0.1884388029575348,0.020765356719493866,-0.5758441686630249,0.17404258251190186,0.31665489077568054,-0.06031985208392143,0.04916001483798027,1.1527838706970215,-0.2795412242412567,-8.697816848754883,1.0338057279586792,3.4260571002960205,-0.24467283487319946,-0.24701425433158875,-0.33762791752815247,9.793107986450195,0.4427826404571533,-0.3675309419631958
2.08,-0.3006713092327118,-0.1587417721748352,0.02075420320034027,-0.6678339242935181,0.31584346294403076,0.20651613175868988,0.009398248977959156,0.0014953154604882002,1.092626929283142,-0.2694609761238098,-0.3006713092327118,-0.1587417721748352,0.02075420320034027,-0.6678339242935181,0.31584346294403076,0.20651613175868988,0.009398248977959156,0.0014953154604882002,1.092626929283142,-0.2694609761238098,0.7761208415031433,-0.10806242376565933,-0.23308920860290527,0.5016884207725525,0.013051250949501991,0.6739465594291687,-0.3018294870853424,1.032921552658081,0.9019243717193604,-0.5376984477043152,-0.1708100438117981,-0.1824077069759369,0.002982206642627716,-0.5757268667221069,0.20118141174316406,0.37239474058151245,-0.10663473606109619,0.1191955953836441,1.1715567111968994,-0.2260872721672058,-7.315457820892334,0.6325474977493286,3.3240246772766113,-0.18673232197761536,-0.03112032823264599,-0.22965990006923676,9.789361953735352,0.5001078844070435,-0.3929275572299957
2.1,-0.2876942455768585,-0.16016480326652527,0.015739813446998596,-0.6608561873435974,0.3172430396080017,0.2219662219285965,0.001163599663414061,0.03100227192044258,1.1122950315475464,-0.25566336512565613,-0.2876942455768585,-0.16016480326652527,0.015739813446998596,-0.6608561873435974,0.3172430396080017,0.2219662219285965,0.001163599663414061,0.03100227192044258,1.1122950315475464,-0.25566336512565613,0.5812554359436035,-0.04709737002849579,-0.2748468220233917,0.2506871819496155,0.1084771454334259,0.8378214240074158,-0.5148830413818359,1.931480884552002,1.0126943588256836,1.3001797199249268,-0.19801369309425354,-0.2231825590133667,-0.09427645057439804,-0.5392717123031616,0.25758299231529236,0.44807323813438416,-0.04278681427240372,0.10572787374258041,1.1420722007751465,-0.3243829011917114,-8.038268089294434,0.4514538049697876,3.529024839401245,-0.1957971602678299,0.08719509840011597,-0.178583025932312,9.787558555603027,0.5414032340049744,-0.3829905092716217
2.12,-0.27678021788597107,-0.16070964932441711,-0.00040465619531460106,-0.6546099185943604,0.31691059470176697,0.24271924793720245,-0.007283370941877365,0.06683231145143509,1.1268905401229858,-0.27356311678886414,-0.27678021788597107,-0.16070964932441711,-0.00040465619531460106,-0.6546099185943604,0.31691059470176697,0.24271924793720245,-0.007283370941877365,0.06683231145143509,1.1268905401229858,-0.27356311678886414,0.5179396867752075,0.043747030198574066,-1.2582287788391113,0.27418121695518494,0.3375527262687683,1.2304011583328247,-0.2611169219017029,1.4854964017868042,0.3851536810398102,-2.1481568813323975,-0.47408363223075867,-0.16323858499526978,-0.16516126692295074,-0.6340698599815369,-0.8082083463668823,0.045403897762298584,-0.020950723439455032,0.048686400055885315,0.6948841214179993,-0.37097954750061035,-10.23179817199707,-0.256258100271225,4.186105251312256,-0.6195943355560303,0.4055350720882416,0.0108232032507658,9.788097381591797,0.5643800497055054,-0.332761287689209
2.14,-0.2737206816673279,-0.159097820520401,-0.045265477150678635,-0.6621530055999756,0.31042370200157166,0.2467832863330841,-0.01249219011515379,0.0833849310874939,1.060060977935791,-0.3156568706035614,-0.2737206816673279,-0.159097820520401,-0.045265477150678635,-0.6621530055999756,0.31042370200157166,0.2467832863330841,-0.01249219011515379,0.0833849310874939,1.060060977935791,-0.3156568706035614,-0.35363972187042236,0.15944796800613403,-3.1980676651000977,-1.033362865447998,0.1193523034453392,-0.6237955689430237,-0.1673964262008667,0.17738236486911774,-6.383884906768799,-2.326253652572632,-0.6076065301895142,-0.03421268239617348,-0.14548943936824799,-0.5611306428909302,-0.5308983325958252,-0.029125571250915527,0.10193855315446854,0.017545443028211594,0.4125668406486511,-0.3078320622444153,-5.532804012298584,-1.368628740310669,2.508392810821533,0.09458450973033905,0.5806388854980469,0.006177078932523727,9.790603637695312,0.5723334550857544,-0.2293718010187149
2.16,-0.2886844575405121,-0.1454157829284668,-0.0928945243358612,-0.6760936975479126,0.30161425471305847,0.22503091394901276,-0.006354842334985733,0.07439286261796951,0.9179847240447998,-0.36515873670578003,-0.2886844575405121,-0.1454157829284668,-0.0928945243358612,-0.6760936975479126,0.30161425471305847,0.22503091394901276,-0.006354842334985733,0.07439286261796951,0.9179847240447998,-0.36515873670578003,-1.1491813659667969,1.0593006610870361,-1.5716391801834106,-0.3210538923740387,-0.9897087216377258,-1.5616205930709839,0.5772524476051331,-0.9648787975311279,-6.928866863250732,-2.378448724746704,-0.5114223957061768,-0.07502827048301697,-0.06327539682388306,-1.4199084043502808,-0.1956503987312317,-0.2281363606452942,0.147809237241745,-0.10744444280862808,0.3175591826438904,-0.09524005651473999,-7.184925556182861,-4.385153770446777,2.517491102218628,1.1266076564788818,0.9724869728088379,0.5175372958183289,9.795767784118652,0.5231557488441467,-0.0731072947382927
2.18,-0.32870444655418396,-0.12942510843276978,-0.1049576923251152,-0.7650750875473022,0.29869145154953003,0.170989990234375,-0.001068518846295774,0.031758926808834076,0.7995824813842773,-0.4706932306289673,-0.32870444655418396,-0.12942510843276978,-0.1049576923251152,-0.7650750875473022,0.29869145154953003,0.170989990234375,-0.001068518846295774,0.031758926808834076,0.7995824813842773,-0.4706932306289673,-2.5909924507141113,0.6468495726585388,0.16196782886981964,-8.307132720947266,5.304393291473389,-3.4179794788360596,0.30336496233940125,-3.07175350189209,-6.610597133636475,-4.840177536010742,-0.5247334241867065,-0.013706248253583908,-0.03746838867664337,-1.762037754058838,0.08446583151817322,-0.32927125692367554,0.2410973459482193,-0.08137433975934982,0.4133288264274597,0.11615961790084839,-7.175544261932373,3.1431405544281006,0.9993844032287598,1.7217106819152832,0.8962404727935791,0.4463178813457489,9.801630020141602,0.39555370807647705,0.08761908113956451
2.2,-0.3708752691745758,-0.11497590690851212,-0.09051381051540375,-0.991447925567627,0.2382679134607315,0.1069461777806282,0.014492894522845745,-0.013951516710221767,0.6929551362991333,-0.5551337003707886,-0.3708752691745758,-0.11497590690851212,-0.09051381051540375,-0.991447925567627,0.2382679134607315,0.1069461777806282,0.014492894522845745,-0.013951516710221767,0.6929551362991333,-0.5551337003707886,-1.2443193197250366,-0.13161900639533997,1.0248295068740845,-13.005199432373047,-6.2157392501831055,-1.4597148895263672,0.33726638555526733,-0.28221946954727173,-1.1530903577804565,-0.5678313374519348,-0.5310359001159668,-0.07684813439846039,0.13558819890022278,-1.922945261001587,0.3758607804775238,-0.3360976576805115,0.24400606751441956,-0.14668622612953186,0.5113984942436218,0.1697646975517273,-112.43043518066406,6.887176990509033,-47.96250534057617,0.9157045483589172,1.2814035415649414,-0.1431448608636856,9.798340797424316,0.37451592087745667,0.2972323000431061
2.22,-0.3794344961643219,-0.10521537065505981,-0.032516028732061386,-1.2557528018951416,0.25396728515625,0.06535285711288452,0.023586485534906387,-0.0074550686404109,0.6666802167892456,-0.5421435236930847,-0.3794344961643219,-0.10521537065505981,-0.032516028732061386,-1.2557528018951416,0.25396728515625,0.06535285711288452,0.023586485534906387,-0.0074550686404109,0.6666802167892456,-0.5421435236930847,-0.39314863085746765,0.7085923552513123,4.0057148933410645,-12.91374397277832,5.005721569061279,-2.3170509338378906,0.3565552830696106,-0.9160053133964539,-1.7205052375793457,0.4387717843055725,-0.615631103515625,-0.1167667955160141,0.07756832987070084,-1.6732492446899414,0.5447707772254944,-0.14122441411018372,0.16997796297073364,-0.1620456725358963,0.4945424497127533,0.4153396487236023,-5.095858573913574,-2.504511833190918,-0.03806343674659729,1.0242971181869507,0.37431418895721436,-0.9347912073135376,9.787891387939453,0.5478729009628296,0.36484697461128235
2.24,-0.39224934577941895,-0.098662368953228,0.029282109811902046,-1.4381535053253174,0.3815222978591919,0.033173199743032455,0.028991039842367172,-0.041727639734745026,0.6366820335388184,-0.5365725159645081,-0.39224934577941895,-0.098662368953228,0.029282109811902046,-1.4381535053253174,0.3815222978591919,0.033173199743032455,0.028991039842367172,-0.041727639734745026,0.6366820335388184,-0.5365725159645081,-0.8270049691200256,-0.06411712616682053,2.1290805339813232,-5.749093055725098,7.054365158081055,-0.9602310657501221,0.20655882358551025,-1.192502737045288,-1.0589679479599,0.21167169511318207,-0.4302680194377899,-0.0523158423602581,0.11484750360250473,-1.7494583129882812,0.9017999172210693,-0.3153083920478821,0.25314807891845703,-0.052324771881103516,0.5353872776031494,0.30545759201049805,-19.1690616607666,-3.225754976272583,-5.475550651550293,0.6637725234031677,0.44168010354042053,-0.02517836168408394,9.778718948364258,0.6502350568771362,0.4358229339122772
2.26,-0.39770227670669556,-0.09372750669717789,0.06649643927812576,-1.5306522846221924,0.6163055300712585,0.005924208555370569,0.04215750843286514,-0.047375187277793884,0.6088099479675293,-0.5298817157745361,-0.39770227670669556,-0.09372750669717789,0.06649643927812576,-1.5306522846221924,0.6163055300712585,0.005924208555370569,0.04215750843286514,-0.047375187277793884,0.6088099479675293,-0.5298817157745361,0.17803296446800232,0.39386796951293945,1.7727261781692505,-4.145354270935059,13.733957290649414,-1.5756354331970215,0.8444377779960632,0.6972190141677856,-1.1785212755203247,0.08626426756381989,-0.7365094423294067,-0.10895825922489166,0.11675180494785309,-1.689353108406067,1.0145217180252075,-0.147035151720047,0.2098945677280426,-0.06188775599002838,0.4925783574581146,0.3497864603996277,-7.525857448577881,-0.3623676896095276,-1.7688924074172974,0.6408765316009521,0.5734143257141113,-0.4918438494205475,9.771120071411133,0.6942970156669617,0.528457522392273
2.28,-0.4128602147102356,-0.09150324761867523,0.09411578625440598,-1.5940358638763428,0.8340917825698853,-0.01321422215551138,0.05555136501789093,-0.03199248015880585,0.5895168781280518,-0.5277715921401978,-0.4128602147102356,-0.09150324761867523,0.09411578625440598,-1.5940358638763428,0.8340917825698853,-0.01321422215551138,0.05555136501789093,-0.03199248015880585,0.5895168781280518,-0.5277715921401978,-1.4675530195236206,-0.09694435447454453,1.0920941829681396,-2.199334144592285,8.785271644592285,-0.5520125031471252,0.518402099609375,0.8501346707344055,-0.9138453006744385,0.145637646317482,-0.5420999526977539,-0.11148349940776825,0.09884213656187057,-1.7922887802124023,0.985630452632904,-0.13695988059043884,0.15882958471775055,-0.05660654231905937,0.5306133031845093,0.07182538509368896,-8.958805084228516,-1.8972054719924927,-2.760427236557007,0.8803924918174744,0.35188019275665283,0.24542269110679626,9.763486862182617,0.7325242757797241,0.6114252805709839
2.3,-0.43498361110687256,-0.09504253417253494,0.10608258098363876,-1.6385400295257568,0.9360677599906921,-0.027527734637260437,0.0646672248840332,-0.022506941109895706,0.5743141770362854,-0.5272689461708069,-0.43498361110687256,-0.09504253417253494,0.10608258098363876,-1.6385400295257568,0.9360677599906921,-0.027527734637260437,0.0646672248840332,-0.022506941109895706,0.5743141770362854,-0.5272689461708069,-0.7058467268943787,-0.24055272340774536,0.20847930014133453,-2.526010036468506,2.6994428634643555,-0.7522290349006653,0.42779654264450073,0.38450950384140015,-0.45688048005104065,-0.150429368019104,-0.6031082272529602,-0.1176290363073349,0.08264981210231781,-1.7175159454345703,1.2512743473052979,-0.09426960349082947,0.2707751989364624,-0.1232525110244751,0.5439999103546143,0.11404478549957275,-7.459908962249756,-0.5589885711669922,-2.559911012649536,0.6200069785118103,0.27403220534324646,-0.07402043789625168,9.761125564575195,0.722021222114563,0.659706711769104
2.32,-0.4472382068634033,-0.09801718592643738,0.10248205065727234,-1.6743240356445312,1.0685055255889893,-0.03637639433145523,0.07542502135038376,-0.020308950915932655,0.5734761357307434,-0.5348973274230957,-0.4472382068634033,-0.09801718592643738,0.10248205065727234,-1.6743240356445312,1.0685055255889893,-0.03637639433145523,0.07542502135038376,-0.020308950915932655,0.5734761357307434,-0.5348973274230957,-0.5785365700721741,-0.09741853922605515,-0.4994678497314453,-0.9906972646713257,8.641901016235352,-0.19822753965854645,0.6431935429573059,0.0022154701873660088,0.25967246294021606,-0.4648333489894867,-0.6014823913574219,-0.042344849556684494,0.22994300723075867,-1.6689116954803467,1.1199265718460083,-0.15037503838539124,0.22866950929164886,-0.03284945711493492,0.5399688482284546,-0.05486205220222473,-9.247014045715332,-1.8237007856369019,-2.1487011909484863,0.21117664873600006,0.38812410831451416,0.05390715226531029,9.756379127502441,0.7325862646102905,0.7158775329589844
2.34,-0.45886483788490295,-0.09278411418199539,0.11798849701881409,-1.680860161781311,1.1313297748565674,-0.044292937964200974,0.08795955032110214,-0.01447913609445095,0.5756790637969971,-0.5445252060890198,-0.45886483788490295,-0.09278411418199539,0.11798849701881409,-1.680860161781311,1.1313297748565674,-0.044292937964200974,0.08795955032110214,-0.01447913609445095,0.5756790637969971,-0.5445252060890198,-0.6195600032806396,0.48824819922447205,2.1530840396881104,0.11598334461450577,-0.1777864545583725,-0.5591543316841125,0.5123748183250427,0.5588356256484985,-0.011031662113964558,-0.4726046919822693,-0.6223779916763306,-0.02122194692492485,0.08234846591949463,-1.6463021039962769,1.2070000171661377,-0.16571509838104248,0.23802588880062103,-0.07805608212947845,0.5571413040161133,0.16169607639312744,-7.562562465667725,-1.4005547761917114,-2.7016875743865967,0.5302896499633789,0.27801793813705444,-0.030964035540819168,9.751042366027832,0.7350687980651855,0.7829086184501648
2.36,-0.47043943405151367,-0.08532734960317612,0.14351743459701538,-1.6734837293624878,1.1572885513305664,-0.05450396239757538,0.09787540137767792,-0.0065587228164076805,0.5783905386924744,-0.5556740760803223,-0.47043943405151367,-0.08532734960317612,0.14351743459701538,-1.6734837293624878,1.1572885513305664,-0.05450396239757538,0.09787540137767792,-0.0065587228164076805,0.5783905386924744,-0.5556740760803223,-0.5456650257110596,0.3129849433898926,-0.0624052919447422,0.5307269096374512,2.181697368621826,-0.4677589535713196,0.5520971417427063,0.23191162943840027,0.27316322922706604,-0.6384491920471191,-0.4499097168445587,0.008752364665269852,0.013457151129841805,-1.2784481048583984,1.3979376554489136,0.1443459689617157,0.26486334204673767,-0.14019635319709778,0.6992074847221375,-0.02150934934616089,-8.65129280090332,-1.5874090194702148,-2.584998846054077,0.37348079681396484,0.25756460428237915,-0.055919673293828964,9.746789932250977,0.7505738139152527,0.8202558159828186
2.38,-0.4748598039150238,-0.07692574709653854,0.11470545828342438,-1.6090656518936157,1.2566370614359172,-0.04846978560090065,0.1133027970790863,-0.03239575773477554,0.6038051843643188,-0.5738617777824402,-0.4748598039150238,-0.07692574709653854,0.11470545828342438,-1.6090656518936157,1.2591015100479126,-0.04846978560090065,0.1133027970790863,-0.03239575773477554,0.6038051843643188,-0.5738617777824402,0.08858440816402435,0.5316293835639954,-2.385261297225952,5.608109951019287,6.512527942657471,0.9298591613769531,0.9261466860771179,-2.7986671924591064,2.021653652191162,-1.2545608282089233,-0.6630125641822815,0.008961427956819534,-0.03688867390155792,-1.2640889883041382,1.2051498889923096,-0.2072925567626953,0.2868146598339081,-0.13422179222106934,0.655032753944397,0.639687180519104,-4.990332126617432,-1.2675976753234863,-1.0019972324371338,-0.39969712495803833,0.6076104640960693,0.23960375785827637,9.74073600769043,0.7370898127555847,0.9004729390144348
2.4,-0.4767279028892517,-0.06538122147321701,0.06169966980814934,-1.5038673877716064,1.2566370614359172,-0.042781490832567215,0.12980163097381592,-0.07078954577445984,0.630329966545105,-0.5952880382537842,-0.4767279028892517,-0.06538122147321701,0.06169966980814934,-1.5038673877716064,1.2595709562301636,-0.042781490832567215,0.12980163097381592,-0.07078954577445984,0.630329966545105,-0.5952880382537842,-0.34609416127204895,0.5939141511917114,-2.7756075859069824,4.652695178985596,-2.550811529159546,-0.25678232312202454,0.7421222925186157,-0.39868658781051636,0.8480423092842102,3.3852932453155518,-0.527426540851593,0.042195070534944534,0.123576320707798,-1.0307458639144897,0.6588431000709534,0.058555275201797485,0.2378118336200714,-0.09156978130340576,0.7017682194709778,0.459541916847229,1.4348608255386353,-0.4320061206817627,-0.22145338356494904,0.29187288880348206,0.34952136874198914,-0.023808341473340988,9.7324800491333,0.7034035921096802,1.0100234746932983
